t_us,bmp_T,bmp_P,bmp_alt,bmp_alt_rel,ax,ay,az,gx,gy,gz,lis_ax,lis_ay,lis_az,g_bx,g_by,g_bz,a_vertical,kf_h,kf_v,P00,P01,P10,P11,gps_x,gps_y,gps_z,gps_vx,gps_vy,gps_vz
0,19.9886534830635,101320.69404885,-0.00564968893560396,0,-0.00791455560128524,-0.0101207862070638,9.66082358048939,-0.0133414792061977,0.0116661918107688,0.006999923383796,-0.0493250748394015,-0.0681363785468928,9.72004120303443,-0.000164837804694355,-0.00021078734728737,-9.79999999634679,19.4608232260767,2.20892945321759e-05,0.389139093920507,0.00567759390126686,0.000113506537397309,0.000113506537397307,0.999603520723741,-0.404517884991576,1.1447985198317,1.59940602654981,1.71513802174821,-0.581495549936533,-0.0662614572176161
20000,19.9929033223465,101331.937857261,0.10462446300031,0.110274151935914,0.0339559352274065,0.279182777311303,0.279636661203379,0.00251211320410515,0.0291542856093815,0.00600361373244654,0.308412188075005,-0.205326278433847,-0.045274485113538,-0.000164837804694355,-0.00021078734728737,-9.79999999634679,10.0796432371623,0.0616318670353178,0.762007218446164,0.00294506044414582,0.00973568042042757,0.00973568042042757,0.965324126176391,NaN,NaN,NaN,NaN,NaN,NaN
40000,20.0595556310047,101332.807891708,-0.128132235159694,-0.12248254622409,0.235174545966575,0.28572693224416,-0.0803953697720311,0.0160531364497127,0.0261940154412356,0.00529759949642597,-0.00625477503785699,0.0160021657075961,-0.0388144631016153,-0.000164837804694355,-0.00021078734728737,-9.79999999634679,9.71961473161283,-0.00060141450026005,0.336488301474374,0.00225273961653192,0.0175843007267329,0.0175843007267329,0.875888034466784,NaN,NaN,NaN,NaN,NaN,NaN
60000,20.0400003278588,101327.699122019,-0.176403494515731,-0.170753805580127,-0.0117444603093849,0.167788843367493,0.0755517953993755,0.0206558980892394,0.0260512002114856,-0.000636022347634751,0.152417561776893,0.206240185072583,0.00316032008543266,-0.000164837804694355,-0.00021078734728737,-9.79999999634679,9.87555520678286,-0.0574860472998016,-0.162311110064281,0.002093938396981,0.0222296420246678,0.0222296420246678,0.739232996457187,NaN,NaN,NaN,NaN,NaN,NaN
80000,20.0385331122555,101317.031247227,-0.0984476945007693,-0.0927980055651654,-0.0276653738253987,-0.00178275881072178,0.0766570548647936,0.0198821897004937,0.0135377782443564,-0.00728537654713402,0.0416498803017077,-0.0672580408589657,-0.21433768265501,-0.000164837804694355,-0.00021078734728737,-9.79999999634679,9.87665655115433,-0.0711739713495594,-0.104952894636719,0.00208281539931101,0.0235127400457046,0.0235127400457046,0.586815889407746,NaN,NaN,NaN,NaN,NaN,NaN
100000,19.9395753917927,101320.814287747,0.174741998840654,0.180391687776258,0.104431631503281,0.186673822938292,0.0463578197520595,0.00474939651351651,0.000916974715823802,0.00483159132431247,-0.227580850722524,0.143358477672265,0.0737610304622662,-0.000164837804694355,-0.00021078734728737,-9.79999999634679,9.84636359144507,0.02013602996845,1.08126731944479,0.00207441649300989,0.0224432457089829,0.0224432457089829,0.448269956704471,-0.481933177913445,0.391070344369665,-0.390560975747372,1.89384323287407,-0.607138401049631,-0.501094885782089
120000,20.0477795698282,101314.620420183,-0.307754229636371,-0.302104540700767,0.127044969512637,0.0218196998729632,0.106933072902624,0.037678551496179,-0.0178917482806763,0.0258389435216536,-0.0869848708999284,-0.0845925175028486,0.153875572972212,-0.000164837804694355,-0.00021078734728737,-9.79999999634679,9.90693567910057,-0.0792530746937473,0.0535802918515895,0.00203068298503625,0.0202385992235046,0.0202385992235046,0.336945795440401,NaN,NaN,NaN,NaN,NaN,NaN
140000,20.0265974228891,101332.339108713,-0.0322470751207454,-0.0265973861851414,-0.111893266455266,0.0333345005623723,-0.128710005148241,0.000524776636272034,0.0164971192955996,0.0101715698733532,-0.0639179743347034,-0.00100340920469155,0.0468601612513985,-0.000164837804694355,-0.00021078734728737,-9.79999999634679,9.67128882982326,-0.0592399106008117,0.401229282605147,0.00195593209003605,0.0177365087291074,0.0177365087291074,0.253148791763244,NaN,NaN,NaN,NaN,NaN,NaN
160000,19.9744840172711,101326.412813029,0.0586132149407556,0.0642629038763596,-0.00570616697319636,-0.0390987424514275,0.111449922588618,0.0530970800103821,-0.0135694824499791,0.0230925628586054,0.265409519299627,0.345169171489338,0.0924743307501387,-0.000164837804694355,-0.00021078734728737,-9.79999999634679,9.91144898559685,-0.0121896633485419,0.904726206487453,0.00186365833709094,0.0153580822022501,0.0153580822022501,0.191826499206533,NaN,NaN,NaN,NaN,NaN,NaN
180000,19.9309094822475,101331.041439485,-0.481735359546547,-0.476085670610943,-0.1304782190539,0.0549573057394949,0.0274588487362307,0.0344025046479552,-0.00298720052410154,0.028312662649303,0.557836857175998,0.162926224441906,0.422122959482187,-0.000164837804694355,-0.00021078734728737,-9.79999999634679,9.82745783613023,-0.141725709925009,-0.0227024699301848,0.00176502300840889,0.0132613566579572,0.0132613566579572,0.147248476858235,NaN,NaN,NaN,NaN,NaN,NaN
200000,20.0283918556496,101320.268000322,-0.13358646543052,-0.127936776494916,0.0183886882295098,-0.0605764843124193,0.146811246124094,0.00478676204716753,0.010664565357442,0.0003982975250799,-0.014869999941741,-0.123283162973596,0.361215267570894,-0.000164837804694355,-0.00021078734728737,-9.79999999634679,9.94681025243616,-0.136612980075005,0.200858862981645,0.00166702173757472,0.0114749332171583,0.0114749332171583,0.114680981101532,1.55657115576462,2.39509418698809,0.162132153485319,1.81204142587581,-0.541008001826343,-1.80791965694051
220000,20.0026122939739,101339.755117096,-0.261002742109131,-0.255353053173527,0.0842199918498868,-0.042890592658154,0.0437777441467223,0.0302233820746778,0.00957140894565462,0.0121106014647416,0.33111823008722,0.0168736963625795,0.131790010907757,-0.000164837804694355,-0.00021078734728737,-9.79999999634679,9.84377823819615,-0.164995873281152,0.179855514882404,0.0015734168309575,0.00997457252331862,0.00997457252331863,0.0906303151754432,NaN,NaN,NaN,NaN,NaN,NaN
240000,20.0433511455763,101339.535377993,0.150314371657571,0.155964060593174,0.203915631397625,0.0671446778867691,0.17199648947494,-0.0104933959282153,0.0103729023168621,0.0184494883967453,-0.252438369139278,-0.295482784960905,0.030824871105985,-0.000164837804694355,-0.00021078734728737,-9.79999999634679,9.97200136351833,-0.0773349279772563,0.860896145659357,0.00148593339630851,0.00871976787407159,0.00871976787407159,0.072631134236744,NaN,NaN,NaN,NaN,NaN,NaN
260000,19.9516867017218,101324.009333198,-0.474081075899433,-0.468431386963829,0.154603546835829,-0.104347960476679,0.0798355885262089,0.0156366349049095,-0.0127626519316471,0.0379841634249192,0.14056109682024,-0.0167379206611431,0.361285370515919,-0.000164837804694355,-0.00021078734728737,-9.79999999634679,9.87983594454538,-0.159106463073826,0.507428536492406,0.00140513316768216,0.00766914776377143,0.00766914776377143,0.0589695905006014,NaN,NaN,NaN,NaN,NaN,NaN
280000,20.0360536327659,101316.11518916,-0.241679544982471,-0.236029856046867,0.154021859044282,-0.116286904470499,0.0453538895664989,0.0208314960703997,-0.00131678257934632,0.02612830279577,-0.0474517090392561,0.131068720675988,0.223185646691501,-0.000164837804694355,-0.00021078734728737,-9.79999999634679,9.84535397902072,-0.167743616963552,0.59851525975771,0.00133095805197041,0.00678601992846509,0.00678601992846509,0.0484546684920473,NaN,NaN,NaN,NaN,NaN,NaN
300000,19.9614057712103,101319.552752958,-0.0141296381985206,-0.00847994926291669,0.0366927938207468,-0.107107401477755,0.0864829124295482,0.0290832545450754,0.0135170990936734,0.01543347388431,0.563573323493016,0.153197802177136,-0.00296712084912584,-0.000164837804694355,-0.00021078734728737,-9.79999999634679,9.88648122581308,-0.121652281888741,0.949951626408598,0.00126304491840682,0.00603970035919131,0.00603970035919131,0.0402528486659744,-0.660597865693362,0.740024004827724,-1.75231087568976,1.98340694527361,-1.10368970471008,-3.02509432651353
320000,19.9548899376121,101325.113354611,-0.265416543449285,-0.259766854513681,0.287393512723584,0.268862966694588,0.105930177139626,0.0245471852704984,0.0275747749344702,-0.00844584850394208,0.317954769786034,-0.144829248322939,0.0603220418854517,-0.000164837804694355,-0.00021078734728737,-9.79999999634679,9.9059407940621,-0.134132133748705,0.997467894460564,0.00120090048370399,0.00540520861936159,0.00540520861936159,0.0337745360502119,NaN,NaN,NaN,NaN,NaN,NaN
340000,19.9804512589963,101324.523595116,-0.534613028105437,-0.528963339169834,0.0940279658986616,0.0113433926622843,0.43210022860955,0.0193873980988968,0.00842617444526367,0.0203991719910568,0.18907089296988,0.225098604892153,0.418185171050762,-0.000164837804694355,-0.00021078734728737,-9.79999999634679,10.2321020540002,-0.195647395597264,0.847154125028267,0.0011439951295652,0.00486244354895503,0.00486244354895503,0.0285975001380262,NaN,NaN,NaN,NaN,NaN,NaN
360000,20.0202627781213,101319.711911884,-0.633877777835725,-0.628228088900121,0.237735100418896,-0.0107385603866359,0.170324706581281,0.0391759787103505,0.0122568879330326,-0.00271650903578577,0.298821520223313,0.0273251248627778,0.185909560494037,-0.000164837804694355,-0.00021078734728737,-9.79999999634679,9.9703284742912,-0.263045126518259,0.699003439914735,0.00109181103036573,0.004395290155483,0.004395290155483,0.0244154424925894,NaN,NaN,NaN,NaN,NaN,NaN
380000,20.0176830442722,101327.447607321,-0.598635813223723,-0.592986124288119,0.125288907761935,0.168866125273357,0.456708085462268,0.0425345196002933,0.0162471391923611,0.028804469946262,0.243515305761845,-0.0460658617565431,0.519672386783303,-0.000164837804694355,-0.00021078734728737,-9.79999999634679,10.2567138248013,-0.310262136955591,0.662331469358685,0.00104386500160372,0.0039908201735762,0.0039908201735762,0.0210032929847254,NaN,NaN,NaN,NaN,NaN,NaN
400000,20.0035279326113,101321.727537234,-0.431151462328551,-0.425501773392947,-0.0714594215002165,0.0456600919718926,0.498200833234071,-0.000106872555524728,0.00248900636686968,0.0356895118236531,0.402851400142324,-0.0106848677234941,0.176110181065321,-0.000164837804694355,-0.00021078734728737,-9.79999999634679,10.2982006131867,-0.317812092041393,0.7851066747271,0.00099971762035777,0.00363862875611359,0.00363862875611359,0.0181935940049663,2.35628131443251,1.7507719826248,0.769768689718149,2.01167303301334,-0.982271532588636,-3.7682125497554
420000,19.9896823206056,101314.745161417,-0.80130224982247,-0.795652560886867,0.140053223650259,-0.0848278271468648,0.364054496945198,0.051800074938169,-0.0126729259546014,0.00265580142719879,0.266739474990514,0.0828737904196951,0.594771867950446,-0.000164837804694355,-0.00021078734728737,-9.79999999634679,10.1640550279761,-0.383307353525847,0.699348115459742,0.000958975089106327,0.00333030334670882,0.00333030334670882,0.0158602590993802,NaN,NaN,NaN,NaN,NaN,NaN
440000,20.0383710640198,101322.720777364,-1.09223945255189,-1.08658976361628,0.0536157100485363,0.0885187395472192,0.189706481775322,0.0113914003212101,0.00544641659323422,0.0129100826607256,0.435864105731938,-0.0016516147063015,0.36421168565523,-0.000164837804694355,-0.00021078734728737,-9.79999999634679,9.98970928747259,-0.483373577699252,0.513810817864035,0.000921287440270162,0.00305900563849937,0.00305900563849938,0.0139072735932334,NaN,NaN,NaN,NaN,NaN,NaN
460000,19.9878795502067,101324.481705153,-0.660563597615978,-0.654913908680375,0.111577720799049,0.0712513090706297,0.370030667209477,0.0248303669872859,-0.00136068575688518,0.00391638690875436,0.132816042997336,-0.0324864052872647,0.417154207598061,-0.000164837804694355,-0.00021078734728737,-9.79999999634679,10.1700340763676,-0.499601888797196,0.626440680544926,0.000886345061262814,0.00281914502786895,0.00281914502786895,0.0122607397184358,NaN,NaN,NaN,NaN,NaN,NaN
480000,20.0276311921272,101333.003065511,-0.923288249200774,-0.91763856026517,0.0262143128633927,0.0667336891015034,0.631408953352244,0.00259620876610262,-0.000629365738314037,0.00386701224581193,-0.103445437783132,-0.022601841319362,0.710206103590799,-0.000164837804694355,-0.00021078734728737,-9.79999999634679,10.4314108294156,-0.549685630080617,0.637600561970686,0.00085387461136791,0.00260612409134181,0.00260612409134181,0.010863209929268,NaN,NaN,NaN,NaN,NaN,NaN
500000,19.9928966177017,101318.589365614,-1.094628360147,-1.08897867121139,0.250318662198609,-0.151227984439496,0.391525503257731,-0.0020060543736534,-0.00531427957708663,-0.00525532114750788,0.135270160607991,-0.284989031715475,0.427969613068097,-0.000164837804694355,-0.00021078734728737,-9.79999999634679,10.1915264607682,-0.614818673769151,0.606975230913284,0.00082363489273916,0.00241613999706759,0.00241613999706759,0.00966960354769282,-0.130736168689232,1.70126545791497,-1.32640441951611,1.73674526890135,-0.780667980356486,-5.02283978816068
520000,19.9814564273016,101325.734400122,-1.62504394015877,-1.61939425122316,-0.135507961672846,0.109266634492529,0.380965935273536,0.00747957944320183,-0.00475617397874329,0.0092339224514568,-0.155646282516672,0.241243974558473,0.544986295705501,-0.000164837804694355,-0.00021078734728737,-9.79999999634679,10.1809660060692,-0.742556804551581,0.409868629739315,0.000795412954059238,0.00224602910065775,0.00224602910065775,0.00864423153884632,NaN,NaN,NaN,NaN,NaN,NaN
540000,19.9960557690929,101327.190438335,-1.27430529210749,-1.26865560317189,0.140052467583079,-0.0221968328963218,0.569524822406617,0.0110503378155842,-0.0108100055919026,0.0213012082625316,0.16464436159762,-0.0205977356606309,0.257799695447201,-0.000164837804694355,-0.00021078734728737,-9.79999999634679,10.3695267004729,-0.80452363706902,0.420639154234749,0.000769020548893922,0.00209314483301448,0.00209314483301448,0.00775860556413496,NaN,NaN,NaN,NaN,NaN,NaN
560000,19.9808046216518,101307.932259525,-1.60056620259102,-1.59491651365541,0.0437816729604203,-0.0926372139500688,0.718576036480456,0.00455502998753796,-0.0061958679166471,0.0374145317415892,0.0920197725532316,-0.180773801694613,0.290255044624061,-0.000164837804694355,-0.00021078734728737,-9.79999999634679,10.5185747801026,-0.898404622095039,0.356757218381543,0.000744290986216249,0.00195526128575861,0.00195526128575861,0.00698980817170894,NaN,NaN,NaN,NaN,NaN,NaN
580000,20.021311936678,101328.231818244,-1.53045141489427,-1.52480172595867,0.117975576132618,-0.0830238614115308,0.709163154359047,-0.00538311411457706,-0.0280354388651362,-0.0272334936704252,0.155195910257316,0.0970206828756911,0.449209859508433,-0.000164837804694355,-0.00021078734728737,-9.79999999634679,10.5091633527126,-0.969437472296734,0.363170593802262,0.000721076366593472,0.00183049669013457,0.00183049669013457,0.00631926869790631,NaN,NaN,NaN,NaN,NaN,NaN
600000,20.0002732266426,101317.332004725,-1.94633810396225,-1.94068841502665,0.178797798692455,-0.188839144864615,0.391159938688894,0.00701418540925829,0.00142060791650043,0.0115137291110989,-0.445519085118148,0.126695384417807,0.774228889809531,-0.000164837804694355,-0.00021078734728737,-9.79999999634679,10.1911588842302,-1.08021405388416,0.272097757421829,0.000699245176285277,0.00171725235718668,0.00171725235718668,0.00573183546328367,-0.771434024779656,1.56676409541056,-4.10742909441084,2.16829188039416,-0.48184211304817,-4.8042969094151
620000,19.9793246995917,101322.389465185,-1.80432310035014,-1.79867341141453,0.0653760794302575,-0.186563589977866,0.720892341564349,0.0201388773035715,-0.0291087790253363,0.0109942457611353,-0.00492496526739522,0.26821922948798,0.51785590007523,-0.000164837804694355,-0.00021078734728737,-9.79999999634679,10.5208894281533,-1.1589596114954,0.277280572008493,0.000678680202819936,0.00161416368971832,0.00161416368971832,0.00521506644028422,NaN,NaN,NaN,NaN,NaN,NaN
640000,20.0324673194695,101344.829565037,-1.63780096983606,-1.63215128090046,-0.00508455287092541,0.0562239585718381,0.670361684824721,-0.00637335221161419,-0.0266382000729893,-0.0135002894845267,0.0721396283360623,-0.139670395892457,0.514202937799389,-0.000164837804694355,-0.00021078734728737,-9.79999999634679,10.4703628083679,-1.20683672681615,0.358685581678838,0.00065927673369458,0.00152006066642544,0.00152006066642544,0.00475868248925989,NaN,NaN,NaN,NaN,NaN,NaN
660000,19.9888753360515,101337.312608417,-1.65478628799544,-1.64913659905984,0.00334606082271549,-0.0418800808787336,0.681629607281576,-0.022402655624957,-0.0134158266253992,-0.0345202567268222,0.316824994096357,-0.373260078927488,0.783144849657346,-0.000164837804694355,-0.00021078734728737,-9.79999999634679,10.4816287625138,-1.2482548978498,0.4549167106658,0.000640941001392118,0.00143393579677269,0.00143393579677269,0.00435414262152452,NaN,NaN,NaN,NaN,NaN,NaN
680000,20.001726842886,101331.616087167,-2.37025023482818,-2.36460054589258,-0.189195233993839,-0.262856202373417,0.974688848272609,-0.00634427174206395,0.000201537392432765,-0.0118946242688021,-0.0331850166215776,-0.057425384979459,0.929169429792167,-0.000164837804694355,-0.00021078734728737,-9.79999999634679,10.7746800118594,-1.36014665436373,0.402843923877317,0.000623588841067795,0.00135491799892485,0.00135491799892485,0.00399431161973638,NaN,NaN,NaN,NaN,NaN,NaN
700000,20.0258100803026,101323.723302193,-2.06372094720093,-2.05807125826533,-0.029958419440948,0.0586414035728589,0.777343494119137,-0.0174514193956429,-0.0150733751252323,0.00386911015567292,0.0300052548728188,-0.426411140677167,1.13036714793404,-0.000164837804694355,-0.00021078734728737,-9.79999999634679,10.5773442512361,-1.4252662845077,0.455378871217654,0.000607144531009995,0.00128225119823132,0.00128225119823132,0.00367319811237737,0.642705490978667,-0.00808615414425451,-2.09927462578811,1.96132725503405,-0.944976210184491,-7.24369754886161
720000,20.0120066951812,101318.138226007,-2.41715624130641,-2.41150655237081,0.10349668751904,-0.124717609901251,0.810647737132955,0.00838631666124542,-0.0261956458701621,-0.0140697730030518,0.136671930630306,0.116591924890398,0.884941367033975,-0.000164837804694355,-0.00021078734728737,-9.79999999634679,10.6106467951239,-1.51737163536195,0.455297231558712,0.00059153978977663,0.0012152767073368,0.0012152767073368,0.00338574679764269,NaN,NaN,NaN,NaN,NaN,NaN
740000,19.9673334079042,101328.186831731,-2.60758995740189,-2.60194026846628,0.287118086289404,-0.0768499069450468,1.01659946282641,0.00306979536416307,-0.010360605700317,0.00836833158602259,0.0651355291904417,-0.244423437078558,0.810027984674986,-0.000164837804694355,-0.00021078734728737,-9.79999999634679,10.8166026388686,-1.61678255591752,0.45027028776084,0.000576712907476058,0.00115341865110507,0.00115341865110507,0.00312767258294674,NaN,NaN,NaN,NaN,NaN,NaN
760000,20.0330576121755,101323.20152926,-2.70629071264162,-2.70064102370601,0.108987584095765,-0.130922854429926,1.06405831522554,-0.00502275264296011,-0.0150931639607483,-0.0326568597862922,-0.105539030412268,-0.201415953360893,1.23661955063701,-0.000164837804694355,-0.00021078734728737,-9.79999999634679,10.8640573320118,-1.71349862773047,0.457332801378864,0.000562607991879036,0.00109617185523401,0.00109617185523401,0.00289532739100343,NaN,NaN,NaN,NaN,NaN,NaN
780000,20.0152414906901,101314.48265885,-2.65170826390629,-2.64605857497068,0.146258050694274,-0.223236412708778,1.13760248386488,-0.0159170321616386,0.0199689495483963,-0.0108084536749288,-0.0072691718676275,-0.145271112109024,0.939865047973737,-0.000164837804694355,-0.00021078734728737,-9.79999999634679,10.9376001419556,-1.79294595895853,0.503656054392694,0.000549174312879071,0.00104309173794212,0.00104309173794212,0.00268559258930029,NaN,NaN,NaN,NaN,NaN,NaN
800000,19.9811511847029,101324.825625072,-3.15462414716585,-3.14897445823024,0.0443067295137488,0.0671601814957465,1.03060973754285,-0.00417903512668647,0.00483852223347554,-0.000960152219915714,-0.116397438260424,-0.137472172327748,1.24416077662575,-0.000164837804694355,-0.00021078734728737,-9.79999999634679,10.8306119269485,-1.90923419856949,0.482130796418525,0.000536365731270186,0.000993785837823031,0.000993785837823031,0.002495791642455,-0.618739203724,-0.0558156811902883,-2.45639060172906,1.4382947426051,-0.996572516042392,-7.20020870734736
820000,19.9799209344398,101317.959517272,-3.41016950123541,-3.4045198122998,0.0935774000632296,-0.202277955143691,1.16024127872415,-0.00929112929004537,-0.0121602858499141,-0.0145761398511421,0.255916224971257,0.212217512738039,1.42803818078036,-0.000164837804694355,-0.00021078734728737,-9.79999999634679,10.9602385015018,-2.03574319929599,0.451141278390831,0.000524140199913107,0.000947906684205105,0.000947906684205105,0.00232361881914727,NaN,NaN,NaN,NaN,NaN,NaN
840000,20.0425340083017,101333.869123783,-3.28778306341502,-3.28213337447942,-0.116415938617036,-0.0021698913507623,1.19358497641683,0.0147434114904216,-0.0223543272586511,0.0175630037961682,-0.321271651400091,-0.122366226390688,1.32289716184119,-0.000164837804694355,-0.00021078734728737,-9.79999999634679,10.9935829711624,-2.13738940748211,0.471657082976822,0.000512459327150993,0.000905145773866887,0.000905145773866887,0.00216708071608162,NaN,NaN,NaN,NaN,NaN,NaN
860000,20.0110123607093,101321.286893913,-3.23407129514187,-3.22842160620626,0.216295924842741,0.00666302324653519,1.16778192877146,-0.00645193676031795,0.00411860328993012,-0.0279835181549513,-0.0618602516445846,-0.368241306821879,1.21382117626092,-0.000164837804694355,-0.00021078734728737,-9.79999999634679,10.9677857097878,-2.22256650318958,0.523928407769056,0.000501287993854265,0.000865228463339835,0.000865228463339835,0.00202444806920345,NaN,NaN,NaN,NaN,NaN,NaN
880000,20.0040298681689,101330.316553531,-3.45319067978998,-3.44754099085438,-0.0144612499365917,0.0959822087007527,1.33410525591314,-0.000368755250552499,-0.0445426504648378,0.00813355302984783,-0.153942770725659,-0.142312667051461,1.58707726249197,-0.000164837804694355,-0.00021078734728737,-9.79999999634679,11.1341070766479,-2.31620057814329,0.567155719297797,0.00049059401675871,0.000827909622004059,0.000827909622004059,0.00189421586403379,NaN,NaN,NaN,NaN,NaN,NaN
900000,20.03939312516,101320.758895054,-3.7263954533773,-3.7207457644417,-0.154126843537218,-0.109357734078785,1.67486672238485,-0.011887966376498,-0.0125249490570002,-0.0126956803077788,-0.166879980686441,-0.0794377620905296,1.53246353005251,-0.000164837804694355,-0.00021078734728737,-9.79999999634679,11.4748617771526,-2.42186569433175,0.599704325010851,0.000480347851846584,0.000792969919831888,0.000792969919831888,0.00177507017404131,2.5278869265468,0.882681591992465,-3.63441522762585,2.02636690285226,-0.222567438751738,-8.39941472233388
920000,20.0677180288883,101325.327274639,-4.10323673936788,-4.09758705043228,-0.0498550184878353,-0.196052947399716,1.1444298488193,-0.0159408975109824,-0.0227084521226403,-0.00278709509627323,0.283378800444672,-0.356376958873295,1.57880926512969,-0.000164837804694355,-0.00021078734728737,-9.79999999634679,10.9444247929363,-2.54693626504443,0.593603916968921,0.000470522332437348,0.000760212646551519,0.000760212646551519,0.00166586047897832,NaN,NaN,NaN,NaN,NaN,NaN
940000,19.9574677393194,101326.240431273,-4.04604153544313,-4.04039184650752,-0.0470708921353353,-0.171674350391089,1.41906473604014,0.0194239710827216,-0.00400543635431521,-0.0116918581169642,-0.203303118832756,-0.0579197804028724,1.49505177106577,-0.000164837804694355,-0.00021078734728737,-9.79999999634679,11.2190602512414,-2.65455939471708,0.625390628231676,0.000461092437429391,0.000729460977415517,0.000729460977415517,0.00156557646668836,NaN,NaN,NaN,NaN,NaN,NaN
960000,19.9782198690721,101322.431320148,-4.57074834512771,-4.56509865619211,0.0761439745547832,-0.0232141200202774,1.37892793529346,-0.0117551800873746,-0.019078978658742,-0.0287964087143483,-0.50806545223752,-0.0710031427725759,1.4605286842708,-0.000164837804694355,-0.00021078734728737,-9.79999999634679,11.1789287162246,-2.79223180388561,0.612757693087175,0.000452035085789124,0.000700555615614861,0.000700555615614861,0.00147332851889923,NaN,NaN,NaN,NaN,NaN,NaN
980000,19.968257205194,101342.166517369,-4.53825177092201,-4.5326020819864,-0.0342752223540537,0.00680179218943527,1.48860264340327,-0.00817056229880809,-0.00538938976465222,0.0277797053385862,-0.0446315301234035,-0.0311024572375891,1.53409316783072,-0.000164837804694355,-0.00021078734728737,-9.79999999634679,11.288602212632,-2.91396945711892,0.631584833207877,0.000443328953938251,0.000673352753414894,0.000673352753414894,0.00138833123658674,NaN,NaN,NaN,NaN,NaN,NaN
1000000,20.0127818745701,101331.403252458,-4.99583361219024,-4.99018392325463,-0.0859175640571769,-0.143770584069959,20.8479999973283,-0.015236731325452,-0.0101084050590827,-0.00966811736827231,-0.119566464663227,0.405174895602173,20.7055952966346,-0.000164837804694355,-0.00021078734728737,-9.79999999634679,30.6479954520585,-3.05479112871985,1.00689806500509,0.000434954313160026,0.00064772230387937,0.00064772230387937,0.00130988948316552,3.42623998868409,0.0486570916074045,-2.27137895188675,2.02429601928916,-0.725381937649945,-8.82797917853567
1020000,19.9716958935837,101334.570172675,-5.04887181434326,-5.04322212540766,0.19997728407039,-0.118894077713074,20.6012838220006,-0.00581924714420958,-0.032162650366596,0.000426277674021526,0.101485819810402,-0.221716795621583,20.7435133719483,-0.000164837804694355,-0.00021078734728737,-9.79999999634679,30.4012846206933,-3.1791927729647,1.39491899546358,0.000426892884544201,0.000623546363042675,0.000623546363042675,0.00123738652126776,NaN,NaN,NaN,NaN,NaN,NaN
1040000,20.0081566149929,101341.780371061,-5.18751149625739,-5.18186180732179,-0.189523591141765,0.29772691540574,20.5114198252195,-0.00979927872830265,0.00943559473902951,0.0311056832114356,0.131591121628293,-0.303166018231246,20.4237413471334,-0.000164837804694355,-0.00021078734728737,-9.79999999634679,30.3114230335339,-3.29472561815827,1.78688478493782,0.000419127709329702,0.000600717868942317,0.000600717868942317,0.00117027389672921,NaN,NaN,NaN,NaN,NaN,NaN
1060000,20.0240711525518,101328.101720123,-5.32937914870859,-5.32372945977298,-0.05749024734614,0.0222233167940931,20.5754697206315,-0.0307912374902074,-0.00728085149978724,-0.0104630295914199,0.142653214616701,-0.300955375809091,20.470238166741,-0.000164837804694355,-0.00021078734728737,-9.79999999634679,30.3754692239643,-3.40220131169848,2.18436062090891,0.000411643032793041,0.000579139429313457,0.000579139429313457,0.00110806278584759,NaN,NaN,NaN,NaN,NaN,NaN
1080000,20.0462189249987,101333.362545612,-5.31832918937777,-5.31267950044217,-0.203943195513657,0.0432366488488386,20.2400562580095,-0.0384440755812188,-0.00316588243420746,0.00930070012485219,0.133417353646666,0.0698944652482175,20.3236795037924,-0.000164837804694355,-0.00021078734728737,-9.79999999634679,30.0400537500757,-3.49133998767653,2.59335914149248,0.000404424200077211,0.000558722294196509,0.000558722294196509,0.00105031657227673,NaN,NaN,NaN,NaN,NaN,NaN
1100000,19.9926885009582,101314.025389253,-5.65275029273818,-5.64710060380258,-0.0226745064128164,0.0488668420147996,20.3103182861234,-0.00119289443161069,-0.0180685901015918,0.0160135891007697,0.144266947977912,0.310253922029425,20.428322258921,-0.000164837804694355,-0.00021078734728737,-9.79999999634679,30.1103189482354,-3.58753688445864,2.98645684534804,0.000397457562566785,0.000539385453394327,0.000539385453394327,0.000996644460599545,-0.0325451734822433,2.40768542178575,-3.5553395226606,1.88968010395883,-0.562396529032912,-7.51757013578012
1120000,20.0309136421906,101317.332742755,-5.76893565444418,-5.76328596550858,0.250686754949205,-0.117074204094333,20.2242568765519,0.00250147342910433,-0.0065108771484373,0.0107766554387769,-0.191161509136812,0.123468621693803,20.4177498096875,-0.000164837804694355,-0.00021078734728737,-9.79999999634679,30.0242585674713,-3.67518565626732,3.3823998790064,0.000390730393595696,0.000521054841778339,0.000521054841778339,0.000946695966653953,NaN,NaN,NaN,NaN,NaN,NaN
1140000,19.9689898885159,101303.648480323,-6.05303273899998,-6.04738305006438,-0.0904462086268762,-0.054889027626753,20.2314296119246,-0.00386602315542867,-0.00954787129487919,0.00290278016626958,0.217558580623194,-0.317306647845298,20.0997994905948,-0.000164837804694355,-0.00021078734728737,-9.79999999634679,30.0314269024576,-3.7661148368518,3.76728689207055,0.000384230812429432,0.000503662637996694,0.000503662637996694,0.000900156151609128,NaN,NaN,NaN,NaN,NaN,NaN
1160000,20.0303757899593,101318.578518545,-6.1015118349502,-6.09586214601459,0.122539402617788,-0.0210242836297219,20.0773022295085,-0.0174325833256292,-0.0302801004252437,0.0192699879469527,0.036624001593686,0.121399094752124,20.0367548656913,-0.000164837804694355,-0.00021078734728737,-9.79999999634679,29.87730383095,-3.84438345166967,4.15913350587464,0.000377947715596896,0.000487146644273179,0.000487146644273179,0.000856741488814244,NaN,NaN,NaN,NaN,NaN,NaN
1180000,19.9614571123648,101321.391872427,-6.21050154448983,-6.20485185555423,-0.194819042339348,-0.211732991938636,20.1825348389491,0.00375949754616518,-0.0208541128714231,-0.033364842759443,0.0583432498517135,-0.126064420257847,19.6935609037769,-0.000164837804694355,-0.00021078734728737,-9.79999999634679,29.9825270003869,-3.91474056271392,4.55652735472544,0.000371870714762298,0.000471449736777246,0.000471449736777246,0.000816196270524684,NaN,NaN,NaN,NaN,NaN,NaN
1200000,19.9904962304441,101319.107347648,-6.5960818786319,-6.5904321896963,0.182821774830889,-0.046807803121911,19.8601424212395,-0.0237530388072917,0.0204157801995032,0.0233049361332587,-0.0104513931377026,-0.197690262916456,20.1824453608636,-0.000164837804694355,-0.00021078734728737,-9.79999999634679,29.660144482147,-3.99540137266872,4.92804617731967,0.000365990080426876,0.000456519377552734,0.000456519377552734,0.000778289476507142,-0.668883176060436,1.42164230663071,-6.74399054439104,2.03734878896147,-0.790021123394311,-6.22768358242805
1220000,20.0287314262444,101333.917631644,-6.40088660506932,-6.39523691613372,0.0834794310506037,-0.0442511828687281,19.7189946695397,-0.000738219817682037,-0.00837950961353266,0.0145625670695824,-0.18433577498486,-0.266077443553459,20.1474256018626,-0.000164837804694355,-0.00021078734728737,-9.79999999634679,29.5189951145335,-4.04895610696677,5.32443834069522,0.000360296690836285,0.000442307180264537,0.000442307180264537,0.000742812038837868,NaN,NaN,NaN,NaN,NaN,NaN
1240000,19.9681764889672,101318.173199758,-6.44753688097888,-6.44188719204327,0.137266492054941,-0.154192861397243,19.8575216348666,-0.00751188474135459,-0.0115327726775423,-0.013681518614923,0.24283325771945,-0.0348923390550669,20.20357572475,-0.000164837804694355,-0.00021078734728737,-9.79999999634679,29.6575206197911,-4.0922019531169,5.7294598913116,0.000354781985544108,0.000428768523098309,0.000428768523098309,0.000709574447418128,NaN,NaN,NaN,NaN,NaN,NaN
1260000,19.9775651986167,101318.929985132,-6.59537764191412,-6.58972795297852,-0.397040395591677,0.0446281322993121,19.776670308976,-0.0163994437457211,-0.000306897357462439,-0.00254091538879711,0.0793275921044058,-0.147436524860628,19.7645263367028,-0.000164837804694355,-0.00021078734728737,-9.79999999634679,29.5766645832137,-4.13191443662082,6.1303206883808,0.00034943792314676,0.000415862203060897,0.000415862203060897,0.00067840464922323,NaN,NaN,NaN,NaN,NaN,NaN
1280000,20.0277824556329,101325.783824008,-6.83703636971885,-6.83138668078325,0.177016212645073,-0.0354677691262527,19.7985561204345,-0.00567629701185856,0.0107833621117753,-0.0048935675082308,0.278938951034306,-0.0765968990421775,19.9676414558436,-0.000164837804694355,-0.00021078734728737,-9.79999999634679,29.5985583276262,-4.17388884934029,6.52242511231112,0.000344256942761475,0.000403550126705336,0.000403550126705336,0.000649146201386522,NaN,NaN,NaN,NaN,NaN,NaN
1300000,20.0049524239354,101318.203016514,-7.00895864549459,-7.00330895655899,0.0766578111713722,0.1367208304685,19.7989258298764,-0.000468722578183327,-0.0415928345492742,-0.00664397210972497,-0.240535993433009,0.0125962674056844,19.6575357417682,-0.000164837804694355,-0.00021078734728737,-9.79999999634679,29.5989300526108,-4.21371848017501,6.9109033466817,0.000339231928868265,0.000391797032965952,0.000391797032965952,0.000621656644147806,-0.757968676076909,3.01979798513229,-9.9757883032573,1.53154399371756,-0.716870117814336,-5.47765246501982
1320000,20.0145423920613,101329.485621173,-6.63428296680961,-6.62863327787401,-0.0896580957324297,-0.217789250811608,19.8473185301383,-0.0114158685373883,0.00487852359647528,0.017736310378022,-0.161467483298469,0.0610210312933532,19.7919005165418,-0.000164837804694355,-0.00021078734728737,-9.79999999634679,29.647312330264,-4.21942004043758,7.33328865193096,0.000334356179179723,0.000380570244354704,0.000380570244354704,0.000595806064669745,NaN,NaN,NaN,NaN,NaN,NaN
1340000,20.0192320148961,101322.220017688,-7.13610306378127,-7.13045337484567,0.125858082526115,-0.122143922037941,19.661697714784,0.00072165467927787,-0.0222603967353722,0.00429937112475401,-0.134777759209149,0.0597087922635642,19.3397571154615,-0.000164837804694355,-0.00021078734728737,-9.79999999634679,29.4616971972277,-4.2437150545934,7.72409230601994,0.000329623375240146,0.000369839443254417,0.000369839443254417,0.000571475826910907,NaN,NaN,NaN,NaN,NaN,NaN
1360000,20.0050084229295,101335.966861587,-7.28038626800317,-7.27473657906756,-0.0873089743169686,0.0224761683030027,19.6141593257585,0.00997606105327611,-0.0162640858366248,-0.000582386511980745,0.331029047568021,-0.126265973958474,19.9507820287391,-0.000164837804694355,-0.00021078734728737,-9.79999999634679,29.4141583333317,-4.26501210289049,8.11140395141061,0.000325027555488451,0.000359576470460599,0.000359576470460599,0.000548557446274571,NaN,NaN,NaN,NaN,NaN,NaN
1380000,19.9744279424926,101330.928181459,-7.7775837436643,-7.7719340547287,0.14316768422735,-0.128824455223321,19.3818440780115,0.00881262572631038,-0.0155332509584354,0.00209985740399796,-0.177742798020314,0.189799479091962,19.6203545999007,-0.000164837804694355,-0.00021078734728737,-9.79999999634679,29.1818437080192,-4.3032637668512,8.46993655315631,0.000320563090548304,0.000349755143481594,0.000349755143481594,0.000526951590738439,NaN,NaN,NaN,NaN,NaN,NaN
1400000,19.9793049306747,101319.296957113,-7.50719362505418,-7.50154393611858,-0.0762654493463335,0.00491563822835333,19.4044803702417,0.00698622649042867,0.0173655459262341,0.0287668856782125,-0.357711498682694,0.0153408549766697,19.701299145405,-0.000164837804694355,-0.00021078734728737,-9.79999999634679,29.2044791859393,-4.31485253791045,8.85294362410601,0.000316224660534358,0.000340351092415647,0.000340351092415647,0.00050656719270218,-0.453705560108067,1.65613738516353,-8.32742059324765,2.11277148000301,-0.777045949512346,-5.12240414811084
1420000,19.9447103141724,101331.437786278,-7.59376108458478,-7.58811139564918,0.0667918695106908,0.0673730240461121,19.5241316575226,0.021894315085184,-0.0180357313150496,0.0144826379408112,0.402387447306815,-0.279977391964006,19.9824068313577,-0.000164837804694355,-0.00021078734728737,-9.79999999634679,29.3241342228166,-4.32078242185376,9.23886989909426,0.000312007234185951,0.000331341611490311,0.000331341611490311,0.000487320657941576,NaN,NaN,NaN,NaN,NaN,NaN
1440000,20.0310346852357,101332.821005656,-7.70476128160313,-7.69911159266753,0.0404742197112058,-0.231906246711401,19.420059725347,-0.00330582445066619,-0.0172189493395129,0.00331667080747716,0.13858092581935,-0.0192723768033829,19.3424255326525,-0.000164837804694355,-0.00021078734728737,-9.79999999634679,29.2200554108402,-4.32261310989654,9.621568718505,0.000307906049659448,0.000322705524580854,0.000322705524580854,0.000469135159891318,NaN,NaN,NaN,NaN,NaN,NaN
1460000,20.0052951945047,101332.516542304,-7.69160951817024,-7.68595982923464,-0.0679725502541954,-0.02108089085799,19.7433168410576,0.0132799481675855,0.000259055999687638,-0.0174222610067185,-0.0020027011580829,-0.21092598223544,19.1021619479566,-0.000164837804694355,-0.00021078734728737,-9.79999999634679,29.5433152369599,-4.31384500209027,10.0163095485846,0.000303916596827876,0.000314423063224857,0.000314423063224857,0.000451940009043868,NaN,NaN,NaN,NaN,NaN,NaN
1480000,19.9916252465032,101306.896672255,-7.78833986395407,-7.78269017501847,0.0127976204483396,-0.0217509269469217,19.2173725559837,0.00765033222821043,0.017201262419161,0.0201093785227043,0.355472084766954,-0.134357401252662,19.6433136678206,-0.000164837804694355,-0.00021078734728737,-9.79999999634679,29.0173722962394,-4.30081859570241,10.3994081869397,0.000300034600952074,0.000306475755824649,0.000306475755824649,0.000435670088591508,NaN,NaN,NaN,NaN,NaN,NaN
1500000,19.9973353609798,101320.890516825,-7.82825749042728,-7.82260780149167,-0.139506542014519,-0.114991193765763,19.1287166764645,-0.00686270818546609,0.00075821190469766,0.0128462017885985,0.0956815097553408,0.0611100967874166,19.3062246640314,-0.000164837804694355,-0.00021078734728737,-9.79999999634679,28.9287118494725,-4.280859578153,10.7824729117009,0.000296256007601272,0.000298846326881182,0.000298846326881182,0.00042026534858759,1.11581809461294,2.48245615587819,-6.34209489033284,1.89330866185316,-0.733529822788179,-3.95563516173899
1520000,20.0468721166006,101309.084219665,-7.78896029063593,-7.78331060170033,0.0526018168016573,0.134206011950325,19.3182949511594,0.0178810275311006,0.0033178720465605,0.00386629877524451,0.197547789305708,0.183217601211128,18.9202554841397,-0.000164837804694355,-0.00021078734728737,-9.79999999634679,29.1182987153557,-4.25019809538525,11.1747174899064,0.000292576968713261,0.000291518605235528,0.000291518605235528,0.000405670351890512,NaN,NaN,NaN,NaN,NaN,NaN
1540000,19.9465668472635,101338.425462858,-7.77808038132389,-7.77243069238829,-0.0389599470855369,0.0590464282445575,19.2233588867318,0.021757188507673,-0.0173352586801498,-0.00529565497073074,0.277739768698771,-0.136120428498148,19.2944028993619,-0.000164837804694355,-0.00021078734728737,-9.79999999634679,29.0233594942768,-4.21077113843619,11.5682799315423,0.000288993829695174,0.000284477440410158,0.000284477440410158,0.000391833866004328,NaN,NaN,NaN,NaN,NaN,NaN
1560000,20.0044690967895,101327.869555861,-7.92803755842973,-7.92238786949413,0.0899468566885154,0.0367776166312958,19.1158668371328,0.0259020210002727,0.00340286291704727,-0.0190043798947443,-0.0905847516646935,0.119803525295119,19.3255295695977,-0.000164837804694355,-0.00021078734728737,-9.79999999634679,28.9158691339761,-4.17106279705273,11.9545471840397,0.000285503117475537,0.000277708626243705,0.000277708626243705,0.000378708495663749,NaN,NaN,NaN,NaN,NaN,NaN
1580000,20.0002686913104,101322.973328624,-7.8743417327682,-7.8686920438326,0.0283037098268566,0.0340389237904134,19.3630788577905,0.0163436070903736,0.0101363452647764,-0.0178803090706004,-0.303047333519614,0.16742370881137,19.1924912114777,-0.000164837804694355,-0.00021078734728737,-9.79999999634679,29.1630800587863,-4.12092035409438,12.3505555956054,0.000282101529426921,0.000271198831102028,0.000271198831102028,0.000366250351645793,NaN,NaN,NaN,NaN,NaN,NaN
1600000,20.0074291253444,101315.825056109,-8.64930572945167,-8.64365604051607,-0.0103222989688126,-0.0213668470707432,18.9856498122998,0.0252456424332,0.0111757411911851,0.00911424310048504,-0.109202822561224,0.32559426741044,19.0935136754528,-0.000164837804694355,-0.00021078734728737,-9.79999999634679,28.7856491720218,-4.10131205469744,12.7046922772147,0.000278785923086192,0.000264935534026671,0.000264935534026671,0.000354418751839932,0.0510784686755257,1.45525191956307,-9.53803867996088,2.114790318113,-0.922362693154375,-2.46917503380378
1620000,19.9430033628774,101319.39294007,-8.44930504098825,-8.44365535205264,0.189899737682982,0.0853951024604232,19.2302279032389,-0.0212692831791183,0.000942229069420858,0.0172427119090834,0.203259870550145,-0.232361453394531,18.9347428117827,-0.000164837804694355,-0.00021078734728737,-9.79999999634679,29.0302329269747,-4.0635073164502,13.0766186831906,0.000275553306606271,0.000258906966250771,0.000258906966250771,0.000343175951085576,NaN,NaN,NaN,NaN,NaN,NaN
1640000,20.038015736461,101319.836452778,-8.81933404421229,-8.81368435527669,0.0239939768502878,0.0445229154320829,19.0456154353207,-0.0120555245471798,-0.00230014862188327,0.00237932889175421,0.202475147462778,0.252790399526128,19.1263764227646,-0.000164837804694355,-0.00021078734728737,-9.79999999634679,28.8456167894435,-4.03556927250511,13.4311257403013,0.000272400829879463,0.000253102057573226,0.000253102057573226,0.000332486896700433,NaN,NaN,NaN,NaN,NaN,NaN
1660000,20.0200067591333,101331.255011697,-8.33643172805557,-8.33078203911996,0.331212495925854,0.135901132474101,19.0148617374274,-0.0176881515730947,-0.0214398818287868,0.0172668399957486,0.0900292294219848,-0.0889595861905188,19.3362386929914,-0.000164837804694355,-0.00021078734728737,-9.79999999634679,28.81487022448,-3.97671979020965,13.8093455557778,0.000269325776277958,0.000247510387135596,0.000247510387135596,0.000322319006984393,NaN,NaN,NaN,NaN,NaN,NaN
1680000,20.0102034138342,101327.525309757,-7.96566223321887,-7.96001254428326,0.30534283582431,0.122669490773921,19.0965055787513,-0.0118527822113834,0.00306144802454338,-4.47790062467449e-05,0.189340795412039,0.0230815537445825,19.290621044821,-0.000164837804694355,-0.00021078734728737,-9.79999999634679,28.8965133460427,-3.89369358722556,14.2064152935835,0.00026632555496207,0.000242122138193669,0.000242122138193669,0.00031264197029872,NaN,NaN,NaN,NaN,NaN,NaN
1700000,20.0251849190922,101335.195339573,-8.64816628072674,-8.64251659179113,0.154553873271335,-0.0111634699906057,19.2027756942288,0.013213839451068,-0.00930475900397031,0.0111577263595085,-0.215159772407191,-0.516524954863483,19.2053666593126,-0.000164837804694355,-0.00021078734728737,-9.79999999634679,29.002778046581,-3.83619828453614,14.5773952526067,0.000263397693711239,0.000236928056517657,0.000236928056517657,0.000303427562595624,-0.484682818205162,0.970427769535403,-6.7528461831736,2.17262705042686,-0.683108961635832,-1.6421011562626
1720000,20.0110910753882,101324.403923233,-8.27018588839676,-8.26453619946115,0.135014200878374,0.0625450574021894,19.0991245595904,0.016740683512872,0.0362756911341071,0.0219984487960568,0.307352215537087,-0.521238844299556,19.0853546190325,-0.000164837804694355,-0.00021078734728737,-9.79999999634679,28.8991281687106,-3.75449649684761,14.9634384817822,0.000260539832236836,0.000231919412092271,0.000231919412092271,0.000294649481514308,NaN,NaN,NaN,NaN,NaN,NaN
1740000,20.022564596096,101306.571089024,-8.70630297688229,-8.70065328794668,0.433146918320571,-0.042800187940598,19.201301358511,-0.00753453375018443,0.0401521172956448,-0.0138268392632381,0.340287156282451,0.219969417889218,19.1988332036827,-0.000164837804694355,-0.00021078734728737,-9.79999999634679,29.0013077163787,-3.68646808984137,15.3346222228794,0.000257749715939439,0.000227087963821023,0.000227087963821023,0.000286283195370853,NaN,NaN,NaN,NaN,NaN,NaN
1760000,19.9565659965167,101332.88455783,-8.29981982978437,-8.29417014084877,-0.0241022094308611,-0.0143887518123086,18.9260020954572,0.0311284806734545,0.029911556906482,-0.0102166275697764,-0.00124817432656263,-0.0287151808740488,19.1242605716566,-0.000164837804694355,-0.00021078734728737,-9.79999999634679,28.726001373512,-3.59377817910363,15.7174843462096,0.000255025190076489,0.000222425926968559,0.000222425926968559,0.000278305805554822,NaN,NaN,NaN,NaN,NaN,NaN
1780000,20.0060449266371,101333.188621465,-8.64512591589899,-8.63947622696339,-0.0513852117045225,-0.0466026341361536,19.1449292565441,0.0223885858868087,0.0235099679028226,0.00402060518224113,0.124111288979452,-0.0924635957458544,18.9378030457681,-0.000164837804694355,-0.00021078734728737,-9.79999999634679,28.9449273827266,-3.5107927572639,16.0915921709588,0.000252364194309213,0.000217925943101072,0.000217925943101072,0.000270695921008592,NaN,NaN,NaN,NaN,NaN,NaN
1800000,20.0042311829484,101326.052550232,-8.75655409537663,-8.75090440644103,-0.0322045698628043,0.133049599134292,18.9652161915885,-0.00258483631478232,0.00951354918211226,-0.0136131883738016,-0.154917941428103,-0.227961787375767,19.2993576907452,-0.000164837804694355,-0.00021078734728737,-9.79999999634679,28.7652185045841,-3.42674804103357,16.4586383124769,0.00024976475760034,0.000213581052308197,0.000213581052308197,0.000263433543609089,1.35107358605189,0.510532333117083,-6.7043745915568,2.09102102007205,-0.658237968003114,-0.659961770175053
1820000,19.9968691708914,101329.816444075,-8.63697060719177,-8.63132091825617,0.191730529348457,0.100339028982093,19.1600515540585,-0.0291608598051111,0.0151013350312702,-0.0103499163662882,0.168732998366102,0.105155908314709,19.118366008482,-0.000164837804694355,-0.00021078734728737,-9.79999999634679,28.9600569300424,-3.33162777484527,16.8347056069402,0.000247224993436551,0.000209384667510713,0.000209384667510713,0.000256499963398318,NaN,NaN,NaN,NaN,NaN,NaN
1840000,20.0109471947122,101324.945485462,-8.79513351839245,-8.78948382945684,-0.0502352747320787,0.132218681124405,19.0893968205255,-0.0279186623369766,-0.00963605493211228,-0.00250094398524175,0.128813858702654,-0.0835509466450603,19.1688282295034,-0.000164837804694355,-0.00021078734728737,-9.79999999634679,28.889398812323,-3.23777053603672,17.2039148525566,0.000244743095351801,0.000205330550677038,0.000205330550677038,0.000249877662720983,NaN,NaN,NaN,NaN,NaN,NaN
1860000,20.0595465254218,101325.704365364,-8.81236108893659,-8.80671140000099,0.12828289517234,0.13532151072898,19.3218793274887,-0.0211447931158325,0.0122357244282757,0.0180894876699648,-0.132341432998705,-0.040640100078152,19.2322895972399,-0.000164837804694355,-0.00021078734728737,-9.79999999634679,29.1218843886465,-3.1390479634995,17.5775730665632,0.000242317332729627,0.000201412790788196,0.000201412790788196,0.000243550228426464,NaN,NaN,NaN,NaN,NaN,NaN
1880000,20.0655980353995,101324.080212597,-8.86493562804048,-8.85928593910488,0.357020500454969,0.057057617630844,19.0088818210664,-0.0213923760910984,0.00282383331039799,-0.00693430485391923,0.0807752423382957,-0.033511581706998,18.8758164345522,-0.000164837804694355,-0.00021078734728737,-9.79999999634679,28.8088890463783,-3.03712603584649,17.9434039438123,0.000239946046864329,0.000197625783405964,0.000197625783405964,0.000237502271380075,NaN,NaN,NaN,NaN,NaN,NaN
1900000,19.9975679878715,101314.107318976,-8.47029683485421,-8.46464714591861,0.242396940868524,0.211388039329635,18.9139672062148,0.00162828324807881,0.00337591763741753,0.00745844000665238,0.0469408214551759,0.0191711557419931,18.8497961036916,-0.000164837804694355,-0.00021078734728737,-9.79999999634679,28.7139758230523,-2.91356081785103,18.3209292896197,0.0002376276472626,0.000193964211712296,0.000193964211712296,0.000231719352606254,1.77451234280924,0.96487320287663,-8.39395448347955,1.6717514417067,-1.10086627512717,0.428089099417965
1920000,19.9750874079509,101318.705831305,-8.63751664764794,-8.63186695871234,0.105868111607951,0.0370274953690025,18.8063956266565,-0.00759484237551405,0.0121291332161083,0.00245902978980281,0.128301587695936,-0.102054433412987,19.1583143485921,-0.000164837804694355,-0.00021078734728737,-9.79999999634679,28.6063981967882,-2.79246317239462,18.6899467148739,0.000235360608168607,0.000190423028900241,0.000190423028900241,0.000226187915455372,NaN,NaN,NaN,NaN,NaN,NaN
1940000,20.0269875374157,101306.305276201,-8.71491986467998,-8.70927017574438,-0.0232927225926562,-0.00431444485025814,19.1513130518544,-0.00427671370533471,-0.00321327296594795,0.0208631191829838,0.148757585534907,-0.0249279892220416,18.937624698091,-0.000164837804694355,-0.00021078734728737,-9.79999999634679,28.9513125601283,-2.66996042549536,19.0627715681718,0.000233143465296918,0.000186997441807399,0.000186997441807399,0.000220895223247178,NaN,NaN,NaN,NaN,NaN,NaN
1960000,20.0197329643063,101328.262573621,-8.56657451703106,-8.56092482809546,0.170561759089706,-0.0857370428324663,19.0427806488503,0.0252187039873538,-0.00170196394256363,-0.00982250989834556,-0.0902485590977161,0.167228471800623,19.0251734314256,-0.000164837804694355,-0.00021078734728737,-9.79999999634679,28.8427816665212,-2.53688690941881,19.4376728956082,0.000230974812758896,0.000183682895692765,0.000183682895692765,0.000215829301898569,NaN,NaN,NaN,NaN,NaN,NaN
1980000,19.9488315619738,101320.091054867,-8.52351093489804,-8.51786124596243,0.118677049403816,0.132442976569305,19.1125076340721,0.00738799236680509,0.0196976642164289,-0.00104304837515718,0.146090942134665,0.0748676984115221,19.1808369201505,-0.000164837804694355,-0.00021078734728737,-9.79999999634679,28.9125124718217,-2.39787749397207,19.8144134070766,0.000228853300169292,0.000180475060066598,0.000180475060066598,0.000210978887092002,NaN,NaN,NaN,NaN,NaN,NaN
2000000,20.0316303134018,101325.262080035,-8.91333946539338,-8.90768977645778,-0.107636753456004,0.183435885137881,18.9423996835177,0.00342278107609712,-0.00940112678333777,0.00575222811764696,0.186658543000911,-0.0536279027707946,19.2839640462954,-0.000164837804694355,-0.00021078734728737,-9.79999999634679,28.7424018114929,-2.27035085783572,20.1745585733716,0.000226777629920816,0.000177369815490924,0.000177369815490924,0.000206333375584361,0.804474578176558,1.87110535556128,-8.72729439776734,1.70416220983095,-0.495734175770043,1.17464500645468
2020000,20.0268800817704,101330.632865755,-0.0768874740245132,-0.0712377850889092,-0.0831564920965227,0.0285468491020653,18.9825670890821,-0.0337506997282492,0.000342047584273428,-0.00622561780540152,0.0126148304318204,0.276976475514689,19.0262654224594,-0.000164837804694355,-0.00021078734728737,-9.79999999634679,28.7825662973101,-1.79065377220115,20.8048660692832,0.000224746554615389,0.000174363241275462,0.000174363241275462,0.000201882780294864,NaN,NaN,NaN,NaN,NaN,NaN
2040000,20.0010527247338,101317.817544054,-0.216329815702586,-0.210680126766982,0.115050892047302,-0.201335337958956,18.8782616604455,-0.00860582002801098,0.0203139466762787,-0.0225250483283431,0.482610984436936,-0.0720505105313305,19.23205573293,-0.000164837804694355,-0.00021078734728737,-9.79999999634679,28.6782592580811,-1.32363934312931,21.4132062239555,0.000222758874641647,0.000171451604000228,0.000171451604000228,0.000197617688845318,NaN,NaN,NaN,NaN,NaN,NaN
2060000,20.009173448496,101322.116197353,-0.0573497258048819,-0.051700036869278,0.155193549279567,0.106019020412957,19.1424616350445,-0.00472198810961199,0.00271233313424987,-0.0091876077869469,-0.0807618734113895,-0.272289689287506,19.136727076755,-0.000164837804694355,-0.00021078734728737,-9.79999999634679,28.9424665186466,-0.857184511936958,22.0168005562102,0.000220813435889052,0.000168631346801998,0.000168631346801998,0.000193529225257111,NaN,NaN,NaN,NaN,NaN,NaN
2080000,19.9914136845971,101328.174682451,0.247608242794418,0.253257931730022,0.102943762408134,-0.214675529498714,19.0241087518744,-0.0308317217313801,-8.64504078074309e-06,-0.0288717915885007,-0.0381865832658245,0.368018865306297,19.1270899531882,-0.000164837804694355,-0.00021078734728737,-9.79999999634679,28.8241058588784,-0.385614250119655,22.6125845405878,0.000218909127589679,0.000165899079367096,0.000165899079367095,0.000189609014537173,NaN,NaN,NaN,NaN,NaN,NaN
2100000,19.9454155362387,101311.694981478,-0.164420612197966,-0.158770923262362,0.304861374323978,0.122448551777679,19.1774831280528,-0.0215668719946021,-0.0106490130675208,0.0105869519481509,-0.0914474042289007,0.0969163671028245,18.7600415083157,-0.000164837804694355,-0.00021078734728737,-9.79999999634679,28.9774908824636,0.0636445650373573,23.1855241317652,0.000217044880279423,0.000163251568577805,0.000163251568577805,0.000185849149910165,0.894010619632182,0.779621106796027,1.48629254666689,2.32395768213916,-0.86563326119768,1.86168782438595
2120000,19.989044604326,101311.611920458,0.15677850654468,0.162428195480284,0.0460152076997326,0.293653104856783,18.8828687679393,-0.00268418399437458,-0.00688733249953247,-0.0132156702953122,0.109824354455695,0.0405847029727598,18.8582115519892,-0.000164837804694355,-0.00021078734728737,-9.79999999634679,28.6828758510436,0.519120684445982,23.7487507690448,0.000215219663870959,0.00016068572976411,0.00016068572976411,0.000182242162476572,NaN,NaN,NaN,NaN,NaN,NaN
2140000,20.0373780292358,101316.348126054,0.286316905146592,0.291966594082196,0.0389726775512113,0.0230827769561373,19.0144303089127,-0.013775671218584,0.0139991765282625,-0.0121452029069563,-0.0706119920770771,-0.0997248393470531,18.8759837749578,-0.000164837804694355,-0.00021078734728737,-9.79999999634679,28.8144314538376,0.973398490222683,24.3054268700657,0.000213432485831357,0.00015819861851642,0.00015819861851642,0.000178780993096592,NaN,NaN,NaN,NaN,NaN,NaN
2160000,19.9472412054033,101309.066723118,-0.105895175235364,-0.10024548629976,0.0120650496249166,-0.0720941418338014,18.99321975525,-0.00879316228798185,-0.00163654463286528,0.00618361867256294,-0.0705291887117733,-0.291482223090907,18.5661396342343,-0.000164837804694355,-0.00021078734728737,-9.79999999634679,28.7932184004395,1.40722869362206,24.8385789878206,0.000211682389457766,0.000155787423018573,0.000155787423018573,0.000175458966317885,NaN,NaN,NaN,NaN,NaN,NaN
2180000,19.9901546499636,101333.758009363,0.30521507396813,0.310864762903734,-0.0958759454653829,0.106484640976904,18.8830876196711,-0.0130149359557734,-0.00259269031719731,-0.00938222483654867,0.0940074474792168,0.0908060596245595,18.8104364262177,-0.000164837804694355,-0.00021078734728737,-9.79999999634679,28.6830882903497,1.85094307210803,25.369272967348,0.000209968452245038,0.000153449456863713,0.000153449456863713,0.00017226976618161,NaN,NaN,NaN,NaN,NaN,NaN
2200000,19.9893444973173,101326.885713942,0.0764290163881265,0.0820787053237305,-0.0130432535881719,0.175283492256109,10.0640884115246,-0.0323222069626509,-0.0343499243502936,0.00121694416542807,0.0695463536418605,-0.216576880608911,9.82060663259599,-0.000440253511816669,0.00343849086950153,-9.79999938688556,19.8640256948447,2.27912321398212,25.7061806327053,0.000208289784339622,0.000151182152318598,0.000151182152318598,0.000169207413755954,1.32424975661004,0.27404472345208,0.306152476740158,1.46859804742389,-1.03223929793675,2.42517713770265
2220000,20.0028517404871,101322.129384472,0.638751834529472,0.644401523465076,0.0601526830844416,0.0440252009408993,9.85168041771737,-0.0102992243082025,-0.033675131752283,-0.0278741531380855,-0.0283860305548294,0.0196564934367136,9.66848503129308,0.000803843718365185,0.00442780405817431,-9.79999896675436,19.6516545536841,2.71926797093088,26.0430443562567,0.000206645527074426,0.0001489830540047,0.0001489830540047,0.0001662662462597,NaN,NaN,NaN,NaN,NaN,NaN
2240000,20.0635533792855,101328.55092495,0.422662592854806,0.42831228179041,0.0278271330175119,0.204280312855001,9.56080531458031,-0.0412751369095351,0.0173995608772146,0.015686218430897,-0.0413085838002508,0.0566567615287154,9.7212286428596,0.00139961028504222,0.00877142696522175,-9.7999959746502,19.3606145735015,3.14289514655195,26.3578427495047,0.000205034851579737,0.000146849812966878,0.000146849812966878,0.0001634408976504,NaN,NaN,NaN,NaN,NaN,NaN
2260000,19.9832448801395,101324.304730356,0.745886863491303,0.751536552426907,0.0779773314950008,-0.131122510019203,9.24201357327431,-0.0141016723889574,-0.0138817168302948,0.0233122369370131,0.0469081958630808,-0.208934937837603,8.90406402869045,0.00304967957242511,0.00621507482703688,-9.79999755470885,19.0420701580623,3.56973307373039,26.6645870286472,0.000203456957465623,0.000144780181102751,0.000144780181102751,0.00016072628056265,NaN,NaN,NaN,NaN,NaN,NaN
2280000,19.9827343838245,101311.696466973,0.551943430255531,0.557593119191135,-0.0281064624675468,0.0196394083708966,8.78268394062793,0.0337911183369812,0.00033110280606685,0.0234623184798026,-0.254135227585608,0.272770644001806,9.03482257572948,0.00252220853941484,0.00673913531990844,-9.79999735829144,18.5826753014889,3.98124006699579,26.9474981507615,0.000201911071571551,0.000142772005927937,0.000142772005927937,0.000158117569491795,NaN,NaN,NaN,NaN,NaN,NaN
2300000,20.0334758313985,101333.450446553,0.284691465503782,0.290341154439386,0.0507369344441579,0.0943457811601215,8.60567529611072,-0.00162723813547914,-0.0101218586307882,0.000354145688930165,-0.1430843800395,0.161392727726072,8.77752982592218,0.00362257573633503,0.00882266895443332,-9.79999535905286,18.4055675289203,4.37529244524281,27.2111998080008,0.000200396446779239,0.000140823225654254,0.000140823225654254,0.000155610185127366,1.06493760647111,-0.552516489088327,0.230480212848947,2.1251283828838,-0.921055074471498,2.44747010834567
2320000,19.9910981831893,101318.312453158,0.663969715688193,0.669619404623796,0.0192057172002355,0.0830217407320645,8.58645520194375,0.0142883574607272,0.00125525012727227,0.00765480828679149,0.239695928424244,0.237058763654812,7.94198334679592,0.00408761904613092,0.0107084661322145,-9.79999329694279,18.3863506002443,4.77501709022948,27.4754317220196,0.000198912360885051,0.000138931864559718,0.000138931864559718,0.000153199779748608,NaN,NaN,NaN,NaN,NaN,NaN
2340000,19.9872339898152,101321.020578295,0.86849190059934,0.874141589534944,0.0157486574815429,-0.216978392356508,7.95687148008282,-0.00959263786615343,0.0235423090630043,-0.0152987920877378,-0.479579024170305,-0.247910724779581,8.31405312202352,0.00448330993690144,0.00638615609434934,-9.79999689372106,17.7570031469714,5.17405510821043,27.7236336284388,0.000197458115528456,0.000137096028630766,0.000137096028630766,0.000150882223601874,NaN,NaN,NaN,NaN,NaN,NaN
2360000,19.9880178215873,101324.603580037,0.977221585140978,0.982871274076582,0.0518241344369332,0.145596776096153,8.01368862642,-0.00925343426324031,-0.00378326939204706,-0.0357471886769174,0.151110361820827,-0.0961502914679499,7.98368745544852,0.00563498146483301,0.00951632658781966,-9.79999375951394,17.8135123423567,5.56904252242853,27.9673582745722,0.000196033035173344,0.000135313901458605,0.000135313901458605,0.000148653592186281,NaN,NaN,NaN,NaN,NaN,NaN
2380000,19.9714319862352,101308.43286207,0.52798702701152,0.533636715947124,-0.156958330084551,0.0377960164503965,7.74638912688116,-0.0109461854372599,-0.0128089071176176,-0.0197888247894635,0.0764641333322719,-0.0125883621713506,7.67235891934949,0.00247162153418436,0.0104563519110514,-9.7999941099876,17.5463837296171,5.94107129730847,28.1873162800275,0.000194636466139159,0.000133583740372934,0.000133583740372934,0.000146510154380147,NaN,NaN,NaN,NaN,NaN,NaN
2400000,19.9622574922915,101308.203855371,0.598010023110905,0.603659712046509,-0.039880437029466,-0.0277334301687396,7.4793573067522,-0.00995786754704226,-0.00205458159497824,0.00984334211442672,-0.131965619551018,-0.218544416760625,7.66265784426937,0.00168396376604724,0.0100468489775952,-9.79999470536039,17.2793885506598,6.30841858412856,28.3965045018137,0.000193267775679051,0.000131903872797506,0.000131903872797506,0.000144448361346243,0.994754667114994,-0.149607929116515,2.90235113684923,1.4704997970015,-0.747908042768233,2.09384459730333
2420000,19.9943843520831,101306.925327221,0.891921699884608,0.897571388820212,-0.146348958443899,-0.219568156251135,7.44394128324698,-0.0186763661404778,0.0101725531083071,0.00429299011786387,-0.147862711446275,0.414255463120452,7.14721379518879,-0.00132326305345865,0.00565350754606585,-9.79999827994002,17.2440468820259,6.67872098164469,28.6049019539242,0.000191926351102394,0.000130272692813158,0.000130272692813158,0.000142464836158901,NaN,NaN,NaN,NaN,NaN,NaN
2440000,19.9917194581532,101314.027056895,0.846408930039439,0.852058618975043,-0.106102683675579,0.18314613253054,6.89413812762121,0.00824016493748887,-0.00980277844174101,0.00716596797517143,0.0110323001992723,-0.242798866209021,7.09598099011477,-0.00353943770938136,0.00952797157871699,-9.79999472908727,16.6939180364594,7.04044250445515,28.7944935279631,0.000190611598939213,0.000128688657914943,0.000128688657914943,0.000140556364100662,NaN,NaN,NaN,NaN,NaN,NaN
2460000,20.024074234177,101320.729590653,1.27814918314747,1.28379887208307,-0.0577272577369154,-0.166301788535182,6.66767141379815,0.00912099974747813,0.0110062060152194,-0.023301931098942,0.22382473820827,-0.0282548185733911,6.61898864372829,-0.00353943770938136,0.00952797157871699,-9.79999472908727,16.4678086639989,7.40955283106057,28.9827634975639,0.000189322944144198,0.000127150285951008,0.000127150285951008,0.000138719883580275,NaN,NaN,NaN,NaN,NaN,NaN
2480000,19.9762993019277,101305.978117177,1.30777032596118,1.31342001489679,-0.00856747030651533,-0.0969859519724868,6.33332635192876,0.00216310129946744,-0.0028765034289754,0.00214663266024374,0.379006909405195,-0.171935177522258,6.70393699730214,-0.00353943770938136,0.00952797157871699,-9.79999472908727,16.1334141450875,7.77246028688909,29.1584511681076,0.000188059829338159,0.000125656152231682,0.000125656152231682,0.000136952477627715,NaN,NaN,NaN,NaN,NaN,NaN
2500000,19.9989968674749,101313.105140582,0.917138704286593,0.922788393222197,0.0732831199013831,-0.0817298730394512,6.18013978911584,0.00106901836874676,0.0162527665124644,0.0126267685174715,0.176615518331815,0.0787228351788512,6.18923374799928,-0.00353943770938136,0.00952797157871699,-9.79999472908727,15.9802423938065,8.11553058256631,29.3163060808651,0.000186821714084878,0.00012420488679812,0.00012420488679812,0.000135251365925369,-0.344503730341979,2.02183693545146,0.599239739070547,1.43532521662164,-1.11023359257773,2.04884382220351
2520000,20.0014474975665,101310.380484055,0.933589681265839,0.939239370201443,-0.0135811089121576,0.173387157349693,5.92589321164553,0.029729295993807,-0.00296717889984357,0.00264689607906587,-0.259185396941835,-0.271008744878763,6.05479758638905,-0.00353943770938136,0.00952797157871699,-9.79999472908727,15.7257165450881,8.45256958512555,29.4638154839434,0.000185608074201467,0.000122795171840545,0.000122795171840545,0.000133613897337716,NaN,NaN,NaN,NaN,NaN,NaN
2540000,19.9629310998646,101303.493138312,1.22055867561666,1.22620836455227,0.139751699276084,0.0363992421333721,5.59362626772462,-0.0144376117762837,-0.0205700837190449,0.0145568624546819,0.0585902509638783,-0.0670209180502908,5.58509248635014,-0.00353943770938136,0.00952797157871699,-9.79999472908727,15.3936383440485,8.79240007764944,29.6054197041243,0.000184418401100446,0.00012142573925685,0.00012142573925685,0.000132037542904762,NaN,NaN,NaN,NaN,NaN,NaN
2560000,20.0080506304419,101304.65463908,0.941063453603628,0.946713142539231,-0.0455268007981359,0.0167838930467816,5.60849054768202,-0.0068868804266565,-0.0200852903822656,-0.0193546943933973,-0.0679011622884153,-0.148354224048733,5.58633772934434,-0.00353943770938136,0.00952797157871699,-9.79999472908727,15.4084547703763,9.11669536519414,29.7360563590989,0.000183252201161865,0.000120095368342962,0.000120095368342962,0.000130519889267145,NaN,NaN,NaN,NaN,NaN,NaN
2580000,19.9329419634645,101308.329783129,1.45066638700021,1.45631607593581,-0.000650134841778394,-0.107871766809485,5.58210734172963,-0.00252499994242795,-0.0201788477965893,0.0188148578043395,-0.0457983790695554,0.213881307207739,5.37172774079044,-0.00353943770938136,0.00952797157871699,-9.79999472908727,15.3822089820578,9.45111495005843,29.8718800091262,0.000182108995133903,0.000118802883606941,0.000118802883606941,0.000129058632493286,NaN,NaN,NaN,NaN,NaN,NaN
2600000,20.0329223806687,101317.430037329,1.1262280579693,1.13187774690491,-0.29737084801458,0.04255522569587,4.78491205985328,0.0258848667903817,0.0161252266813034,0.00843762574788271,-0.212103059339936,-0.160095967225931,4.99012830294495,-0.00353943770938136,0.00952797157871699,-9.79999472908727,14.5847607117484,9.7687476275759,29.9799548005771,0.000180988317560467,0.000117547152699361,0.000117547152699361,0.000127651572281203,0.712560723797627,2.17711525247984,0.0190702416166126,1.60477106247491,-0.850165002077652,1.38352549237189
2620000,19.9575854895947,101307.503672214,1.35782395668259,1.36347364561819,-0.0518015262502046,-0.00229620800258757,4.7023976005195,0.025474938264067,0.00434377001869267,-0.00562202911190612,-0.141020252387732,0.113377749051541,4.81522681211554,-0.00353943770938136,0.00952797157871699,-9.79999472908727,14.5023785948054,10.0874633414296,30.0864913330838,0.000179889716234407,0.000116327084452999,0.000116327084452999,0.000126296606509642,NaN,NaN,NaN,NaN,NaN,NaN
2640000,19.9799089713485,101310.630965012,0.901909411349815,0.907559100285418,-0.0466913367419647,0.212030005909433,4.60505127828861,-0.00681399681290357,0.000154353290384325,-0.00619868352107103,0.119982494822085,0.177629708553715,4.49168423028698,-0.00353943770938136,0.00952797157871699,-9.79999472908727,14.404825793618,10.3856650164636,30.1772839994729,0.00017881275167503,0.000115141627025334,0.000115141627025334,0.000124991726115102,NaN,NaN,NaN,NaN,NaN,NaN
2660000,19.9520719395895,101314.313528075,1.30563287342049,1.31128256235609,-0.308973483520383,0.123496515249738,4.16071951458396,0.0414367240882175,-0.0164313599531602,0.00721565119184111,-0.0268011875745067,-0.168330984426636,4.42175807414886,-0.00353943770938136,0.00952797157871699,-9.79999472908727,13.9604856171885,10.6906340101256,30.2632357371753,0.000177756996628705,0.000113989766137807,0.000113989766137807,0.00012373501027304,NaN,NaN,NaN,NaN,NaN,NaN
2680000,20.0205903886128,101308.17652799,1.2560749954553,1.26172468439091,-0.119614030441932,-0.180484374098926,3.90788793067431,0.0286784036338635,-0.0141105023777023,0.0208270159310796,-0.14207724829329,0.0809809112059061,4.03281629090702,-0.00353943770938136,0.00952797157871699,-9.79999472908727,13.7080181026581,10.9880021211894,30.3389947118147,0.000176722035591396,0.000112870523406162,0.000112870523406162,0.000122524621863145,NaN,NaN,NaN,NaN,NaN,NaN
2700000,19.998464370613,101317.740406682,1.33385658901924,1.33950627795485,-0.100703911410517,-0.0168895337046213,3.6120111051295,-0.00305839440344654,0.00491028938671177,-0.000660132731755997,-0.0739177832131254,-0.215779356630397,3.94371989106121,-0.00353943770938136,0.00952797157871699,-9.79999472908727,13.4119892121887,11.2818077033934,30.4064175310611,0.000175707464352025,0.000111782954756584,0.000111782954756584,0.000121358803200032,2.29420111880222,3.34369843368441,3.28692260026957,1.67602436548572,-1.15308697176251,0.662927168827717
2720000,19.9560715448849,101317.261401929,1.17701290803132,1.18266259696692,0.149230403875938,-0.162626176517291,3.54950229680365,0.00454011528381153,-0.00570005437255111,-0.0114285226468827,0.197053372375814,0.173979384963516,3.72738015311488,-0.00353943770938136,0.00952797157871699,-9.79999472908727,13.349712396823,11.5649063190318,30.4657286287682,0.000174712889555669,0.000110726148922695,0.000110726148922695,0.00012023587201207,NaN,NaN,NaN,NaN,NaN,NaN
2740000,20.0125430193103,101301.388575039,1.55951181138147,1.56516150031708,-0.0699241416460421,-0.0559424503479205,3.171495567201,0.00477446775406357,-0.0202740000470177,0.00793563496266367,0.131374453633594,-0.0511259865590396,3.25064628269677,-0.00353943770938136,0.00952797157871699,-9.79999472908727,12.971522996717,11.8539348584117,30.5212904026748,0.000173737928285596,0.000109699226018764,0.000109699226018764,0.000119154217652281,NaN,NaN,NaN,NaN,NaN,NaN
2760000,19.953730086071,101308.752813544,1.56253965176402,1.56818934069963,-0.0107420945756861,-0.132761488476619,3.19414776010565,0.0353869199348103,0.00548037953556402,0.0101826623441245,-0.192100708380977,-0.153453241883897,2.8555582292703,-0.00353943770938136,0.00952797157871699,-9.79999472908727,12.9942712387424,12.137167301358,30.5736958132047,0.000172782207663255,0.000108701336184813,0.000108701336184813,0.000118112297526416,NaN,NaN,NaN,NaN,NaN,NaN
2780000,20.0217661549594,101305.919470385,1.172804216447,1.1784539053826,-0.105163208743469,-0.112001124475473,2.75182134632434,0.00666091493001295,-0.0541840880079339,0.000501104584490637,-0.0437462743413366,-0.0903878636083863,2.76994602489405,-0.00353943770938136,0.00952797157871699,-9.79999472908727,12.5518907769666,12.4028653519153,30.6063893357168,0.000171845364465343,0.00010773165829957,0.00010773165829957,0.000117108633724343,NaN,NaN,NaN,NaN,NaN,NaN
2800000,19.9649481221456,101295.195970207,1.20634519294873,1.21199488188434,0.0486001641286406,-0.117513736087547,2.53754611141222,0.0194751574234382,-0.0109824842966462,0.000180825372971298,-0.155021299257689,-0.36794147225372,2.5966179694107,-0.00353943770938136,0.00952797157871699,-9.79999472908727,12.337676551168,12.6640677878071,30.6323550219091,0.000170927044757159,0.000106789398757451,0.000106789398757451,0.000116141809841876,2.43821780625086,1.2772484965443,0.566902666071093,2.18892179999788,-1.02192036193432,0.224043469596749
2820000,19.9584464223907,101300.227496147,1.13284340609764,1.13849309503324,-0.0616930727406738,0.00811055962693259,2.27155297287982,-0.000311618750996806,-0.0040334436623871,-0.00514186059421143,0.417418496591036,0.452741867396987,2.10369228095117,-0.00353943770938136,0.00952797157871699,-9.79999472908727,12.0715215841934,12.9176169749288,30.6486759684141,0.000170026903541467,0.00010587379030603,0.00010587379030603,0.000115210467981077,NaN,NaN,NaN,NaN,NaN,NaN
2840000,19.9542263193335,101314.140530697,1.42371705403169,1.42936674296729,-0.0957593040605814,-0.129179752577994,2.03547373287988,0.0183467511240119,-0.0178031318912864,0.00957839659503803,0.0865012436714261,-0.369804641522907,2.07943879892991,-0.00353943770938136,0.00952797157871699,-9.79999472908727,11.8355636469732,13.1744187123174,30.6628505541414,0.000169144604422153,0.000104984090940659,0.000104984090940659,0.000114313305917863,NaN,NaN,NaN,NaN,NaN,NaN
2860000,19.9873490999166,101308.719794918,1.40376494579451,1.40941463473011,0.0373842232494543,0.060360384132662,1.88843923269057,0.00546641919484058,0.0312393307993145,-0.00882801094614437,0.070586633081818,-0.0388785360824867,1.87977344591482,-0.00353943770938136,0.00952797157871699,-9.79999472908727,11.6883930340484,13.4251438883187,30.6708631119992,0.000168279819281995,0.000104119582853091,0.000104119582853091,0.000113449074426562,NaN,NaN,NaN,NaN,NaN,NaN
2880000,19.9977950251094,101305.081907533,1.38746555426453,1.39311524320014,-0.23781670638852,-0.115467887814815,1.65007342910127,0.0130534275518127,-0.0105799235547789,0.0218719305217103,0.15383837643565,-0.111184157165596,1.46940736174042,-0.00353943770938136,0.00952797157871699,-9.79999472908727,11.4500989127688,13.6699862657691,30.6710992853282,0.0001674322279739,0.000103279571431186,0.000103279571431186,0.000112616574751728,NaN,NaN,NaN,NaN,NaN,NaN
2900000,19.9604349860597,101304.346371558,1.22507033721997,1.23072002615558,-0.0240881811050397,-0.190614810679436,1.36275193630411,0.0253098404570521,-0.0326453655420545,-0.0024439865571862,0.0154497004177171,0.297700994399185,1.38123884220855,-0.00353943770938136,0.00952797157871699,-9.79999472908727,11.1629278272159,13.9047354736804,30.6600931539316,0.000166601518025002,0.00010246338430693,0.00010246338430693,0.00011181465621822,1.47753771179055,2.18981540580886,-1.22782819723941,1.45786925669996,-1.08079298126426,-0.278504350898332
2920000,20.0235051155136,101320.668821725,1.25338458827772,1.25903427721332,-0.20364052173607,0.0099813208501691,1.06446490892761,0.0151722443092432,-0.012195099112996,-0.00232879881003591,0.246102783534058,-0.185585434994279,0.8702074320863,-0.00353943770938136,0.00952797157871699,-9.79999472908727,10.8643810838883,14.1350805994737,30.6412584458446,0.000165787384353042,0.000101670370450177,0.000101670370450177,0.000111042213971128,NaN,NaN,NaN,NaN,NaN,NaN
2940000,19.9870024362546,101301.391000431,1.33737053221414,1.34302022114974,-0.0507768238921352,-0.115609184816221,0.916122372387698,0.0192119183238767,0.0262713872240742,1.59992375610724e-05,0.0910442156585366,-0.0689328574537199,0.484326047053766,-0.00353943770938136,0.00952797157871699,-9.79999472908727,10.7162159408388,14.362655077192,30.6186707060024,0.000164989528994491,0.000100899899305684,0.000100899899305684,0.000110298186837702,NaN,NaN,NaN,NaN,NaN,NaN
2960000,19.9939288427823,101300.429980567,1.29241646883198,1.29806615776759,0.00793817026932353,-0.0997397433853983,0.618642654526346,-0.0301662166296077,-0.00521204916583219,0.0271752866254889,-0.0693230440129568,-0.0982563885920897,0.822305093649897,-0.00353943770938136,0.00952797157871699,-9.79999472908727,10.4187421599639,14.5837314762244,30.5871199680778,0.000164207660843892,0.000100151359971134,0.000100151359971134,0.00010958155530398,NaN,NaN,NaN,NaN,NaN,NaN
2980000,19.9863888704812,101309.510920567,1.49314427977498,1.49879396871058,0.175330324907423,0.0033488563311929,0.485344068362584,0.0216169655620377,0.00452384991697177,0.0200121872128034,-0.204195202565481,-0.0154425968574422,0.0327932298652296,-0.00353943770938136,0.00952797157871699,-9.79999472908727,10.2854038749697,14.8054220144333,30.5543017016666,0.00016344149540394,9.94241604140082e-05,9.94241604140083e-05,0.000108891339599262,NaN,NaN,NaN,NaN,NaN,NaN
3000000,19.9827908217843,101322.77134015,0.992481823028936,0.99813151196454,0.0949204034239979,-0.1071219901051,-0.151169326488742,-0.0128199686899789,-0.0169817923644092,-0.00330803857137678,0.13034923305253,-0.432174082829862,0.00102380436775604,-0.00353943770938136,0.00952797157871699,-9.79999472908727,9.64896918544317,15.0075708514692,30.4979746301017,0.000162690754545834,9.87177267252686e-05,9.87177267252687e-05,0.000108226597882043,1.45610227019077,2.35083341014218,2.00940776443827,1.93625493124012,-1.3751691593198,-1.16274321156396
3020000,19.9995258412361,101303.450841539,1.3550792160252,1.3607289049608,0.0866644936689894,-0.187502779107184,-0.0892734722760774,0.0023633649316507,-0.00370968630931023,0.00197167432302235,0.434725088820697,-0.312165017601802,0.385082275688937,-0.00353943770938136,0.00952797157871699,-9.79999472908727,9.71094017418106,15.2150457028468,30.4473937733018,0.000161955166279457,9.80315024079439e-05,9.8031502407944e-05,0.000107586424521448,NaN,NaN,NaN,NaN,NaN,NaN
3040000,19.9764122692119,101312.839181069,1.11801208425971,1.12366177319531,0.0595059164269774,-0.119895289607037,-0.0655460606432018,0.00804343345681754,0.0126934607463824,-0.00356022290754786,0.038965620216326,-0.278409107271368,0.0294933369734776,-0.00353943770938136,0.00952797157871699,-9.79999472908727,9.73459203342658,15.4107891766841,30.3913874355168,0.00016123446453298,9.73649476988219e-05,9.7364947698822e-05,0.000106969948468567,NaN,NaN,NaN,NaN,NaN,NaN
3060000,19.9687271225604,101316.887596043,1.09175771297636,1.09740740191197,0.211915745702848,0.26502063467891,0.154775170466014,-0.000554612413141272,0.00776846643290448,-0.00961934758694377,0.208786582378742,0.00310314280432922,0.234123647091416,-0.00353943770938136,0.00952797157871699,-9.79999472908727,9.95459396002725,15.6010636541954,30.3377060713532,0.000160528388941483,9.6717538921551e-05,9.67175389215511e-05,0.000106376331712478,NaN,NaN,NaN,NaN,NaN,NaN
3080000,20.0078469160021,101307.374534075,1.26120324643744,1.26685293537305,0.0417810297657291,-0.00621526896432503,0.0856165006965222,0.00475689655315609,-0.0172568101277764,-0.00420578850166415,0.2803998357288,-0.173219619942718,0.39962553001873,-0.00353943770938136,0.00952797157871699,-9.79999472908727,9.88563758732726,15.7915058833573,30.2839566721314,0.000159836684644226,9.60887678695525e-05,9.60887678695525e-05,0.000105804767816053,NaN,NaN,NaN,NaN,NaN,NaN
3100000,20.0476997924257,101320.396108778,1.07346059465269,1.07911028358829,-0.0150217510919568,0.00479825802964237,0.0894792954409329,0.0124042287470725,0.00381252312528952,-0.01137729261749,0.0640979868178926,-0.0427758145889039,-0.0660786882420678,-0.00353943770938136,0.00952797157871699,-9.79999472908727,9.8894691568842,15.9721356216479,30.22557615191,0.000159159102090204,9.54781412172367e-05,9.54781412172368e-05,0.000105254480526981,1.83560237774,2.1301192868376,3.53505506821586,1.61737407797645,-1.01471259769385,-2.52435515815552
3120000,19.9848945199812,101309.954658379,1.2393939048631,1.2450435937987,0.165360726742055,-0.0502636747010539,0.28210049563404,0.0131115196445349,0.0246077457705952,0.0251861563660655,-0.18758371748167,-0.253045887550361,-0.223677534976963,-0.00353943770938136,0.00952797157871699,-9.79999472908727,10.0822089352186,16.1530404365762,30.1724159011198,0.000158495396851662,9.48851799581004e-05,9.48851799581005e-05,0.000104724722459704,NaN,NaN,NaN,NaN,NaN,NaN
3140000,19.9596210966807,101320.593445152,0.606450378558554,0.612100067494157,-0.0422284595954471,-0.226248558569654,0.376725684663699,-0.0099881702891303,-0.00319160601644766,-0.00983265122743657,-0.102131877124449,0.0431295994664621,0.259592029849014,-0.00353943770938136,0.00952797157871699,-9.79999472908727,10.1769301988622,16.3121777961221,30.1092715154052,0.000157845329445232,9.43094188683614e-05,9.43094188683615e-05,0.000104214773844249,NaN,NaN,NaN,NaN,NaN,NaN
3160000,20.0079838791741,101317.400311607,0.602932667266689,0.608582356202293,0.0175883352097798,-0.114208988278502,0.320183951092175,-0.00305285354946293,0.0109917609581018,0.0182864322175098,0.278932791731919,0.0156234350070278,0.188424431123423,-0.00353943770938136,0.00952797157871699,-9.79999472908727,10.120301169985,16.4673981019332,30.0439256415867,0.000157208665160404,9.37504059948623e-05,9.37504059948624e-05,0.00010372394133818,NaN,NaN,NaN,NaN,NaN,NaN
3180000,19.9829105926398,101316.501604614,0.925986110553089,0.931635799488693,0.112069857658628,0.0327572881419814,0.173659823057431,-0.0203754692843438,-0.0314647454514315,0.000740314837454278,-0.0549961560706592,-0.0759950385580017,-0.0661798264761748,-0.00353943770938136,0.00952797157871699,-9.79999472908727,9.9736683575905,16.6277019869898,29.979958529647,0.000156585173895014,9.32077021660457e-05,9.32077021660458e-05,0.000103251556898135,NaN,NaN,NaN,NaN,NaN,NaN
3200000,19.9055086510359,101301.906808683,0.82540315286955,0.831052841805154,0.153621141392257,-0.398535217150873,0.286951472114717,0.0216468153031781,0.0159646398663966,0.00549454034591891,0.0646022190941752,-0.272827956663854,0.356245596016073,-0.00353943770938136,0.00952797157871699,-9.79999472908727,10.0873942733583,16.7813828325989,29.9155407911339,0.0001559746299975,9.2680880524866e-05,9.26808805248661e-05,0.000102796976707619,0.554375343590813,0.74124849817161,-2.40265393628746,2.27175335934544,-1.46617583364245,-3.36105437462731
3220000,19.9487346769944,101321.673021452,0.487147892128934,0.492797581064538,0.107090803036444,-0.132283048011018,0.198099003791187,0.0147618276266801,0.014293707317362,0.00206224383326672,0.130588428778354,-0.278593515702185,0.0455629852781392,-0.00353943770938136,0.00952797157871699,-9.79999472908727,9.99826618605505,16.9221236383979,29.8428893872499,0.000155376812115642,9.2169526082568e-05,9.21695260825681e-05,0.000102359580157946,NaN,NaN,NaN,NaN,NaN,NaN
3240000,20.0267572013735,101313.322533488,0.411447867243787,0.417097556179391,0.137028697762715,-0.210437997996151,0.156740419141598,0.00805667172322737,0.0235897572221043,-0.0169877486817943,0.227229369971277,-0.500510573327109,0.583001677389091,-0.00353943770938136,0.00952797157871699,-9.79999472908727,9.95699442175783,17.0573065271514,29.7674289986393,0.000154791503051535,9.16732352923173e-05,9.16732352923174e-05,0.000101938768879382,NaN,NaN,NaN,NaN,NaN,NaN
3260000,20.0097727518464,101309.138815882,0.222982915802738,0.228632604738342,0.280430615027293,-0.103322945872096,0.125375495396892,0.0176436989839513,0.0152685466070263,-0.00360590661914178,-0.0920375508110805,-0.153328606057448,0.165598773091734,-0.00353943770938136,0.00952797157871699,-9.79999472908727,9.9255771651869,17.1839900342961,29.6876383022138,0.000154218489622568,9.11916156417239e-05,9.1191615641724e-05,0.000101533965819756,NaN,NaN,NaN,NaN,NaN,NaN
3280000,19.9508424162911,101302.532631711,0.709928318125403,0.715578007061006,-0.128246866992175,-0.0195387645465159,0.296657412911706,-0.0145133728444737,0.000546858860423206,-0.032043106876125,0.0655115592484705,0.0924502852628904,0.275559932265075,-0.00353943770938136,0.00952797157871699,-9.79999472908727,10.0966299312118,17.3205605609504,29.6184437716222,0.000153657562528162,9.07242852633505e-05,9.07242852633505e-05,0.000101144614367938,NaN,NaN,NaN,NaN,NaN,NaN
3300000,19.9792875570294,101322.545104382,0.185821539071935,0.191471228007539,0.0542259743443647,-0.0411386378413665,0.353610567302307,-0.00891795265433807,0.0222823074066175,0.00609364612465041,0.113078568662255,-0.0546987037470571,0.188036728255057,-0.00353943770938136,0.00952797157871699,-9.79999472908727,10.1536699584635,17.439720749316,29.5413219323192,0.000153108516222053,9.02708725623433e-05,9.02708725623434e-05,0.000100770177519755,0.652246016995474,1.70872826206459,-2.80884828204457,1.61067291588588,-0.71187015688942,-3.96471215181426
3320000,19.9822221768457,101324.783564305,0.172334984920889,0.177984673856493,0.0674123087239263,-0.111530325818559,0.602221751805301,0.00596216089915072,-0.00822324609805937,-0.000361774912784183,0.151983526583589,0.186542029965653,0.871297150153663,-0.00353943770938136,0.00952797157871699,-9.79999472908727,10.4023542094771,17.5555517583757,29.4684757210337,0.000152571148789924,8.98310158603725e-05,8.98310158603725e-05,0.00010041013708405,NaN,NaN,NaN,NaN,NaN,NaN
3340000,20.0148619866482,101307.89870458,0.0327630990060224,0.0384127879416264,0.060929326931027,0.13461577097875,0.373184407576717,-0.00541132472426573,-0.00155255662005582,0.0116472840404411,0.471481965290513,-0.142822625466539,0.606135105256325,-0.00353943770938136,0.00952797157871699,-9.79999472908727,10.1730753334231,17.6647635626395,29.3884025934282,0.000152045261832157,8.94043630551062e-05,8.94043630551062e-05,0.00010006399292674,NaN,NaN,NaN,NaN,NaN,NaN
3360000,19.9502443754288,101324.534496616,-0.0272861170264221,-0.0216364280908182,0.042303938995365,-0.337693423524543,0.579889379724876,-0.00890305324538805,0.0142607853816278,-0.00289225476886825,-0.0240313922951422,0.033785361069849,0.741586252502643,-0.00353943770938136,0.00952797157871699,-9.79999472908727,10.3802326663527,17.7695969192599,29.3111712743193,0.000151530660351541,8.89905712944865e-05,8.89905712944866e-05,9.97312622508274e-05,NaN,NaN,NaN,NaN,NaN,NaN
3380000,19.9700820846483,101319.398640442,-0.248218583483831,-0.242568894548227,0.271047159330697,-0.0799978712140467,9.84606900530043,-0.0166110769796623,0.0244827020537706,-0.0122868313674446,0.184422905549482,-0.0574987047174273,9.81232951206948,0.0020338393950882,0.00806063962070907,-9.79999647395785,19.6460750103989,17.8677258839582,29.4154821800913,0.000151027152645732,8.85893066651107e-05,8.85893066651108e-05,9.9411478910468e-05,NaN,NaN,NaN,NaN,NaN,NaN
3400000,20.0298669781268,101326.739882405,0.0171337986678135,0.0227834876034175,0.142208273358416,0.0173384575303841,9.74441353757975,-0.00148298442713754,0.0537987465371327,-0.00345796348523897,0.193168954532012,-0.0447626215333872,9.80330804410206,0.00503828729341431,0.00858877127639328,-9.79999494125732,19.5443202011855,17.9738796413853,29.5215766246673,0.000150534550204302,8.82002438940573e-05,8.82002438940574e-05,9.91041927572899e-05,0.109718851330058,0.474847041979267,-1.01682433544439,1.29805929820178,-1.56140882620484,0.339345387664269
3420000,19.9525684595335,101310.76233445,-0.320660784712546,-0.315011095776942,0.127649906220137,0.047959637084714,9.83513533288178,-0.00267223828136885,-0.00121965224480899,0.0378058754328323,0.139986292799502,-0.11385164019047,9.68801373072759,0.00780320526177767,0.0097675898822981,-9.79999202572,19.6349778883299,18.072006658879,29.6238410077027,0.000150052667610194,8.78230660635297e-05,8.78230660635298e-05,9.88089690172614e-05,NaN,NaN,NaN,NaN,NaN,NaN
3440000,20.0150174428191,101329.157705395,0.0793929445827138,0.0850426335183178,0.0195854868888084,-0.0499974251031618,9.79852580522833,-0.0236348450941007,0.0127384409075154,0.0208216296422675,0.196752682652896,-0.0696883611196781,9.85136896007007,0.00837377719490866,0.00892944078183744,-9.79999235433083,19.598546981581,18.1815864375916,29.7311790939182,0.000149581322445439,8.74574643377211e-05,8.74574643377211e-05,9.85253876965131e-05,NaN,NaN,NaN,NaN,NaN,NaN
3460000,19.9691711311141,101322.155897135,-0.190836937543933,-0.185187248608329,0.219483159074398,-0.0855794844713577,9.88586812659851,-0.00588169209771256,0.0116361056687806,0.00223468280774405,0.0176019856109878,-0.0571035796869862,9.90388381336284,0.0131231872571728,0.00733390083561612,-9.79998846916948,19.6856266286992,18.2848551969949,29.8355851233012,0.000149120335200952,8.71031377013346e-05,8.71031377013346e-05,9.82530430146018e-05,NaN,NaN,NaN,NaN,NaN,NaN
3480000,19.9476616945705,101340.876770079,0.0182480724842701,0.023897761419874,0.373350931710928,-0.0403419344780748,9.81179425813257,-0.00292677117676472,-0.0151211394642895,0.00528110567036065,-0.130178127054105,0.121961815811307,9.89911398931505,0.0211752334594826,0.00664639105159739,-9.7999748690991,19.6109897434287,18.3943955941344,29.9412151187869,0.000148669529190288,8.67597927092198e-05,8.67597927092199e-05,9.79915428637915e-05,NaN,NaN,NaN,NaN,NaN,NaN
3500000,19.9468477643929,101314.200921767,0.258856183160548,0.264505872096152,0.20600521671852,-0.117973892918127,9.70402437925394,-0.00244091690332633,-0.00111834821788309,-0.00120770109992432,0.234682368309503,0.229932756268791,9.73573891724456,0.0259028493352776,0.00432618121462146,-9.79996481251603,19.5034971133505,18.5108313316867,30.0477462911553,0.000148228730467193,8.64271432466138e-05,8.64271432466138e-05,9.77405082930084e-05,1.55647810904607,2.1880477349189,-1.94801216219186,2.00005738898382,-0.9595810152887,0.593694878664893
3520000,20.0229974458502,101319.91887226,0.113349971298003,0.118999660233607,-0.162533085713829,-0.127219990361943,9.71599966683476,-0.010114261735567,-0.00425446401437722,0.0388984827008345,0.0927307054759914,-0.137260932931507,10.0798143733982,0.0230522899137161,0.00176557979800332,-9.79997272826092,19.5163778713908,18.6239787874123,30.1516100521752,0.000147797767746807,8.61049102994985e-05,8.61049102994985e-05,9.74995730151982e-05,NaN,NaN,NaN,NaN,NaN,NaN
3540000,20.0464764699117,101318.696422878,0.0140525244873727,0.0197022134229767,-0.0897161741835034,-0.0206504242929744,9.85442110562717,0.0122290173182076,-0.0146662417315586,0.0117557954710215,0.094179950002664,-0.0843029387309287,9.53511939679814,0.0216659739465067,0.00137230483286164,-9.79997595417215,19.6545981637145,18.7350951943769,30.2560528976868,0.000147376472330409,8.57928217346119e-05,8.57928217346119e-05,9.72683829368881e-05,NaN,NaN,NaN,NaN,NaN,NaN
3560000,20.0581391729777,101335.944943172,-0.102678897867811,-0.097029208932207,-0.0240335165533352,-0.107443097391407,9.89479303475026,-0.0194356697310257,0.0396609661462745,-0.00600043682492656,-0.0312028372398162,0.0343869740519404,10.0110351102685,0.0216210085850833,-0.000837672206503275,-9.79997611376135,19.6948127569323,18.8437756335446,30.3588740641878,0.000146964678033548,8.54906120886694e-05,8.54906120886694e-05,9.70465957088192e-05,NaN,NaN,NaN,NaN,NaN,NaN
3580000,19.982967768019,101336.53852163,-0.0653800954352336,-0.0597304064996296,0.0866649210060594,-0.0879492026039073,9.80123757528533,-0.00966370342403491,0.00406594477043422,0.0105524999198869,0.301722133166627,-0.0971715449716432,9.72732207482258,0.0238770159121962,-0.00268740444449534,-9.7999705441378,19.6009728448079,18.9539794976935,30.4597191526325,0.000146562221117455,8.51980223663764e-05,8.51980223663764e-05,9.68338802965801e-05,NaN,NaN,NaN,NaN,NaN,NaN
3600000,20.0088070331609,101320.901287601,0.0407517566524359,0.0464014455880399,0.0697229022889567,0.0698170674282421,9.86097679489368,0.00211987804413221,0.00950484526799104,-0.0110917847008037,0.0749158464045747,0.163892627777011,9.84133154927896,0.0258303518527617,-0.00128903636062596,-9.79996587398693,19.6607678677322,19.0674001320162,30.5626373605964,0.000146168940223597,8.49147998468298e-05,8.49147998468298e-05,9.66299165702269e-05,1.75300402108269,1.17735130646261,-2.49091171402942,1.52865240464054,-1.08071659062504,0.520225214186192
3620000,19.9755543755123,101327.41910908,0.262362025782522,0.268011714718126,-0.157763320041429,0.100285897110898,9.90401340905556,0.00157507537416825,0.0206398787323248,0.0223686612045146,-0.173087125522404,0.158562118593624,9.8875027400113,0.0230868711945745,0.000773569889107888,-9.79997277536872,19.7043496386663,19.1869109895045,30.6689373528809,0.000145784676311282,8.46406978979268e-05,8.46406978979268e-05,9.64343949119352e-05,NaN,NaN,NaN,NaN,NaN,NaN
3640000,19.9847095975632,101341.366508636,0.0841798921613836,0.0898295810969875,-0.0538646552797632,0.0480767193107734,9.92105792682297,-0.010450617316659,-0.00329231001592444,-0.0231573549972681,-0.00755659673600648,0.309085571120936,9.84041909204892,0.0224514496548538,0.0017917457055222,-9.79997411843805,19.7211463376256,19.3021924244478,30.7720446491528,0.000145409272598175,8.43754757984163e-05,8.43754757984163e-05,9.62470158407751e-05,NaN,NaN,NaN,NaN,NaN,NaN
3660000,20.0172512174764,101326.386105828,0.0844597734227115,0.0901094623583154,-0.0196888596432745,-0.0870417946253296,10.024557135307,0.0108774113167068,0.0164047019578415,0.0183843381080613,0.117285927783508,-0.211328765171697,9.8001069234037,0.0225197552621479,1.57105203959075e-05,-9.79997412549524,19.8245760511561,19.4178486376356,30.8763815305428,0.000145042574503635,8.41188985672455e-05,8.41188985672455e-05,9.60674896537557e-05,NaN,NaN,NaN,NaN,NaN,NaN
3680000,19.9478707418813,101325.530530619,0.133582591251129,0.139232280186733,-0.0299404586172045,-0.256059450609465,9.86519658944049,0.00252032671520941,-0.00343972354505583,-0.00379366315254943,0.195834150711654,0.146192071181633,9.91536400064646,0.0223682562113191,-0.0053192710055204,-9.79997302886442,19.6650987925714,19.5350656293766,30.9773833100685,0.000144684429594756,8.38707367998696e-05,8.38707367998696e-05,9.5895536082325e-05,NaN,NaN,NaN,NaN,NaN,NaN
3700000,19.9503074676141,101308.847148211,-0.0174342162527834,-0.0117845273171795,-0.168387447059779,0.086861672372086,9.91234297020708,0.00920510755914281,0.0253883807824087,0.0147752996144127,0.00341652570439345,0.0892034397103305,9.94336244417863,0.0193308217983924,-0.00362133872440169,-9.79998026555332,19.7126872568057,19.6486994804223,31.0762148091227,0.000144334687535027,8.36307665112082e-05,8.36307665112082e-05,9.57308839635588e-05,1.67722841006956,0.154103128111021,0.785098399982155,1.87590778556478,-1.00972975254303,0.467248636058562
3720000,19.9594974664222,101305.608232873,-0.295774490426452,-0.290124801490848,-0.0502374039326752,-0.0508935335905847,9.97268409401058,0.0120329562197009,-0.0197694841867217,0.0303284737341665,0.106155027859319,-0.0220354095204054,9.99938343246093,0.0186937994017092,-0.00475881276068345,-9.79998101506146,19.7727358903738,19.7555934177395,31.1713126853048,0.000143993200035482,8.33987689849458e-05,8.33987689849458e-05,9.55732709253123e-05,NaN,NaN,NaN,NaN,NaN,NaN
3740000,19.9765772014773,101335.414083224,0.018077194607995,0.023726883543599,0.127376133253569,-0.166037683149309,9.80031483521688,0.00446218339622076,0.0207854958707114,0.00591730915761805,-0.132441697295071,0.030773743506803,9.71250124528635,0.0217369192355292,-0.00831707165226357,-9.79997236387232,19.5998637581984,19.8707153259847,31.2667481451726,0.000143659820808281,8.31745306288889e-05,8.31745306288889e-05,9.54224430846429e-05,NaN,NaN,NaN,NaN,NaN,NaN
3760000,19.9539160980424,101340.546925912,0.537136180977577,0.542785869913181,-0.170500945823228,0.0586329941567906,9.725229570994,0.0018164831371271,-0.0165275729570251,0.00886843680077851,-0.0452285459339976,0.137956887303634,9.93807818452993,0.0186347215044379,-0.00726767384670283,-9.79997958814565,19.5255770049889,19.9989835949856,31.3673115707915,0.000143334405522596,8.29578428361016e-05,8.29578428361016e-05,9.52781547588547e-05,NaN,NaN,NaN,NaN,NaN,NaN
3780000,20.0089649385806,101327.084379874,-0.231708193312247,-0.226058504376643,-0.157650654616443,0.0481132819713605,9.75626506980616,-0.0105145859904734,-0.00743264195915712,0.0126987764675823,0.269350618048127,0.00200585781741982,9.90897631451176,0.0157371028864958,-0.00641613113821924,-9.79998526411412,19.556535059448,20.1078590879904,31.4561957659919,0.000143016811762728,8.27485018515585e-05,8.27485018515585e-05,9.5140168188544e-05,NaN,NaN,NaN,NaN,NaN,NaN
3800000,19.9909103339483,101322.026348532,0.155389645497312,0.161039334432916,-0.108152271721726,0.0866932539529526,9.92706672344143,-0.0148036034815335,0.011342775542963,-0.0163032033336065,0.122075555927821,-0.0225843073000333,9.73429890176753,0.0138155246484539,-0.00474497482879761,-9.79998911308031,19.7272501379828,20.2265865693302,31.5532287058672,0.000142706898988372,8.25463086440623e-05,8.25463086440623e-05,9.5008253272061e-05,1.92047177327038,2.5281688972144,-0.4511822031555,2.12657047308456,-1.07717778020159,0.488040381343272
3820000,20.0605272518099,101320.368785979,-0.112021785386893,-0.106372096451289,0.106067475195114,-0.0697828783460506,9.99194522322047,0.00265723081977333,-0.00687809394483441,0.000609624474799945,0.144496038590705,0.0149762342298418,9.84583117361754,0.0163197388797603,-0.00630020632696984,-9.7999843863918,19.7917078099196,20.3386785689605,31.6466573115473,0.000142404528496925,8.23510687831846e-05,8.23510687831846e-05,9.48821873108316e-05,NaN,NaN,NaN,NaN,NaN,NaN
3840000,20.0335493979047,101333.306938114,0.0197917177093308,0.0254414066449347,0.0290993815745986,-0.191791021032857,9.76780756315539,0.0104311041761734,0.000470997670519111,-0.00788360210334833,0.159652573781774,0.0670904953431281,9.77282569362635,0.0172647805324066,-0.0104263882288751,-9.79997924578321,19.567531562617,20.4541228985851,31.7365520416489,0.000142109563387772,8.21625923210007e-05,8.21625923210007e-05,9.47617547650119e-05,NaN,NaN,NaN,NaN,NaN,NaN
3860000,19.98811105355,101339.855075911,-0.22711605149933,-0.221466362563726,0.0310953328029086,0.181676910799191,9.85268640970412,0.00569492690633247,-0.00437534837165014,0.0173872978640771,-0.173713821905829,-0.063310075193017,9.58878643224712,0.018274332944325,-0.00685943851402182,-9.79998056104494,19.6527360453374,20.5633927385156,31.8235897625815,0.000141821868528462,8.19806936783978e-05,8.19806936783978e-05,9.46467470189765e-05,NaN,NaN,NaN,NaN,NaN,NaN
3880000,19.9677341583211,101333.511836443,-0.0441389643429588,-0.0384892754073548,-0.12967765698528,-0.0630196411330267,9.82875915056688,-0.00198829042351395,0.00573492482154415,-0.00360844932286197,0.160311000537892,0.300416238808895,9.65319083512628,0.015954411196387,-0.00831576390515529,-9.7999834849266,19.6289002272533,20.6772298774646,31.9118369877129,0.000141541310522692,8.18051915357464e-05,8.18051915357464e-05,9.45369621561658e-05,NaN,NaN,NaN,NaN,NaN,NaN
3900000,19.9906133858011,101336.012356484,0.0220548324476292,0.0277045213832331,-0.0107698209883006,0.0985141149902622,9.77252183190001,-0.0143965173966147,-0.0245126604326412,0.0267632293300647,-0.118552056255204,0.125475612017344,9.50834934522457,0.0160614878632799,-0.00643625665992101,-9.79998472464156,19.5725889505433,20.7926162641762,31.9988815217693,0.00014126775768003,8.16359087277336e-05,8.16359087277335e-05,9.44322047428436e-05,1.50798710887902,0.00702701458905874,0.722567317874616,1.88695902076073,-0.998382393087243,-0.719310882774753
3920000,20.0027599011652,101330.251508158,0.212708086473613,0.218357775409217,-0.231248876326442,0.130454616792398,10.0347158506188,0.0063662744718942,-0.0172928945785556,0.0127901330044348,-0.19373870135164,0.085213415773097,9.9554232341847,0.0115842068988832,-0.00385446723397179,-9.79999239536607,19.8350327238365,20.9126047617308,32.0928319649133,0.000141001079987292,8.14726721421641e-05,8.14726721421641e-05,9.43322856203365e-05,NaN,NaN,NaN,NaN,NaN,NaN
3940000,19.9687251206084,101306.995365182,0.176659402197579,0.182309091133183,-0.0216847576804623,0.0835098603008694,9.76806257812596,5.62196768077571e-06,-0.0105386389745617,-0.0194111038711707,-0.188301515586219,-0.174038149975269,9.95199919471583,0.0113730076614276,-0.00219483106765825,-9.79999315496768,19.5680996238655,21.0314937456814,32.1797803875616,0.000140741149081512,8.13153126225478e-05,8.13153126225478e-05,9.42370217053522e-05,NaN,NaN,NaN,NaN,NaN,NaN
3960000,20.0094838730373,101313.500663794,0.227958856419761,0.233608545355365,0.0305039053214764,-0.0315579086788635,9.58100699520555,0.0124950825882021,-0.00468170787498502,-0.0139233612231881,-0.0757853523189368,0.0741597044936097,10.0861988343521,0.0122397438220341,-0.00289666429272446,-9.79999192846643,19.3809516782593,21.1513277426023,32.2625686385473,0.000140487838224425,8.11636648742941e-05,8.11636648742941e-05,9.41462357979906e-05,NaN,NaN,NaN,NaN,NaN,NaN
3980000,19.9886218511723,101336.822794595,-0.0864330883611478,-0.0807833994255439,-0.0236199312408337,-0.0203350955664819,9.88811464348695,-0.00994941250774815,-0.022146925316473,-0.00392496705099552,-0.10784639022168,-0.123713990606962,10.0510740135622,0.0120049056991128,-0.00338129277383416,-9.79999206372629,19.6881285538289,21.2630988951146,32.3458636599965,0.000140241022278394,8.10175673743459e-05,8.10175673743459e-05,9.40597563970845e-05,NaN,NaN,NaN,NaN,NaN,NaN
4000000,20.0040608147643,101327.862653435,-0.124184803044336,-0.118535114108732,0.0379016386432275,0.0450453538607699,9.95004438551917,0.0096927870943652,-0.0075397029582562,-0.00335863021391038,-0.0678582634406493,-0.109368218629606,9.68933540775444,0.0130487863637957,-0.00251409319404988,-9.79999099022595,19.7499963273743,21.3737625060644,32.4287936089725,0.000140000577683722,8.08768622840924e-05,8.08768622840924e-05,9.39774175225214e-05,1.54498776342239,-0.188964355773628,1.35773873962277,1.83746274707646,-0.411258217304734,0.298638226772324
4020000,19.9909863005982,101314.629286732,-0.060829756177083,-0.0551800672414791,0.052688485460046,0.126075744419145,9.6440135785143,0.0189047747763172,-0.0126987044268938,-0.0219586105387423,-0.283826764777291,0.042666673610698,10.0095486775516,0.014413531211112,6.00879391324043e-05,-9.79998940032628,19.4439248819675,21.4857300690476,32.5054332920026,0.000139766382437276,8.07413953654045e-05,8.07413953654045e-05,9.38990585442197e-05,NaN,NaN,NaN,NaN,NaN,NaN
4040000,19.9871395872078,101307.575153913,0.39361890758766,0.399268596523264,-0.223374650919902,-0.0974182924093981,9.93013525356439,-0.00836713092662926,-0.0356589788755757,-0.0200834508154792,-0.141333610335573,-0.00909399440523155,10.0324256202805,0.0100629640543139,-0.00196875373568162,-9.79999463575176,19.7303396158853,21.608500210522,32.5931180006825,0.000139538316072355,8.06110158996456e-05,8.06110158996456e-05,9.38245240174458e-05,NaN,NaN,NaN,NaN,NaN,NaN
4060000,20.0829690489727,101333.066591309,0.354159768244007,0.359809457179611,0.116571993501789,-0.105136274934928,9.84814217020897,0.00737837014499204,-0.000149610986919508,0.00729830782803361,0.0166596933744006,0.0889858532280468,9.83840579486964,0.0127024876097495,-0.00420053682851049,-9.79999086745997,19.647936831265,21.729852473277,32.6773210594618,0.000139316259639751,8.04855766095171e-05,8.04855766095171e-05,9.37536635241758e-05,NaN,NaN,NaN,NaN,NaN,NaN
4080000,20.0332692768193,101315.800125517,0.0173994348471938,0.0230491237827978,-0.26675026477095,0.147753005507358,9.61188596779569,0.00188352726283844,0.0170630843675412,0.025131445622321,-0.0584885920580022,-0.250837278822414,9.91086755887647,0.00740686843537836,-0.00120937756057487,-9.7999971263111,19.412102993481,21.8424710107148,32.7507995405747,0.000139100095689939,8.03649335836016e-05,8.03649335836016e-05,9.36863315202207e-05,NaN,NaN,NaN,NaN,NaN,NaN
4100000,19.9826405903513,101318.464900973,0.253653679561502,0.259303368497106,-0.00019830976872983,0.192193714607711,9.67224153899119,0.0150762845192808,-0.00872625028737897,-0.00749253874750884,-0.0826761996272948,-0.0112524758366596,10.0063979441517,0.00755499455371425,0.00276871072086747,-9.79999669674935,19.4721841328272,21.9603664236179,32.8276506967021,0.000138889708256322,8.02489462034757e-05,8.02489462034757e-05,9.36223871878473e-05,1.02884575036113,0.606007874558762,-0.46615796323091,1.37141356806748,-1.07613236156873,0.517418770976341
4120000,20.0365374497893,101326.181344376,0.00618165909569333,0.0118313480312973,-0.21324229421095,0.0620913337238064,9.87304715620652,0.00954114275721904,-0.000796342757027989,-0.00743519115917402,0.187036804153299,-0.220481389710379,9.87424697738197,0.00327035097574357,0.00412060234835657,-9.79999858803259,19.6730907871278,22.0717241211678,32.9038042744612,0.000138684982839501,8.01374770732676e-05,8.01374770732676e-05,9.35616942936405e-05,NaN,NaN,NaN,NaN,NaN,NaN
4140000,19.9974961095045,101329.445489116,0.054918416912531,0.0605681058481349,-0.240826091748365,0.0714736595518573,9.75957121970493,0.00502409966063603,0.00609708913074299,-0.0584058451309983,0.17275419796151,0.424943221880435,10.2348630131878,-0.00167858262914028,0.00569499313775356,-9.79999820150053,19.5594866440847,22.1838156714053,32.9772110649708,0.000138485806392484,8.00303919515413e-05,8.00303919515414e-05,9.35041210513672e-05,NaN,NaN,NaN,NaN,NaN,NaN
4160000,20.0352282385802,101333.884634537,-0.349083715123178,-0.343434026187574,-0.0418943167963155,0.0963298831879098,9.95530578707018,0.00777344779822837,-0.00616077206206116,-0.0354051738118658,0.0703395733966536,0.059585840113911,9.65269826447915,-0.00258720512119048,0.0078230929436368,-9.7999965359987,19.7552143103342,22.2856478772225,33.0476954471356,0.000138292067306802,7.99275596853944e-05,7.99275596853944e-05,9.34495399896111e-05,NaN,NaN,NaN,NaN,NaN,NaN
4180000,20.0173087997051,101320.793000794,0.241612125921716,0.24726181485732,-0.0770926820759477,0.0559308192249204,9.9476917375079,0.0281469504960553,0.00254000026392623,-0.0205350631993622,-0.147987505334606,0.139013141651706,9.63469740681336,-0.00424853596718917,0.00915417203812387,-9.79999480362497,19.7476007963537,22.4014432032835,33.1252433404607,0.000138103655399469,7.98288521466597e-05,7.98288521466597e-05,9.33978278239623e-05,NaN,NaN,NaN,NaN,NaN,NaN
4200000,19.9932016929044,101326.386427024,-0.257889173210133,-0.252239484274529,-0.00184627288412216,-0.0104526077539692,10.0889501041378,-0.00408286915728938,-0.00894289282411586,0.0155306142998019,0.14031246295693,-0.0544739695029881,9.84285362403566,-0.00437820055878572,0.00913273127761376,-9.79999476655877,19.888953632462,22.504646005128,33.1973808324275,0.000137920461900729,7.97341441701099e-05,7.97341441701099e-05,9.33488653335546e-05,2.74148517820967,0.831090502883133,-1.25468489539473,2.3288358749014,-0.881952366072414,0.0949095135298017
4220000,19.9552299084324,101318.573878878,0.202021732504362,0.207671421439966,0.0325382145620031,-0.129713620402456,9.81061697268823,-0.0159314301093629,-0.00420127932897016,-4.75293452575779e-05,-0.240225323702011,-0.347567992255556,9.89344489932358,-0.00379162009556374,0.00662078045538346,-9.79999703004461,19.6107142217552,22.6185346256792,33.2692805288846,0.000137742379442554,7.96433134935627e-05,7.96433134935627e-05,9.33025372417534e-05,NaN,NaN,NaN,NaN,NaN,NaN
4240000,19.9721407847979,101322.336011761,0.102656865029154,0.108306553964758,-0.265123243503709,0.0775922918812371,10.0782837137571,0.0144643811925865,-0.044263892818565,-0.0129289470450757,-0.119634874279513,0.0931649438585506,10.1079162231498,-0.0093995689261035,0.00838017276292458,-9.79999190922158,19.8779547523109,22.7294369974218,33.3438832345184,0.00013756930204783,7.95562406997958e-05,7.95562406997958e-05,9.32587321008102e-05,NaN,NaN,NaN,NaN,NaN,NaN
4260000,20.0047741897382,101330.155137031,0.0539977205684666,0.0596474095040705,-0.176067027352486,-0.0743709061188443,9.8221574276996,0.00896684517984615,0.000686610342470168,0.00508065376742236,-0.0594498011539571,-0.0427564994210621,10.2227574232805,-0.0132640767724658,0.00700569350758079,-9.79998851961194,19.6219607839269,22.838588694731,33.4114638888187,0.000137401125120193,7.94728091601781e-05,7.94728091601781e-05,9.32173421803045e-05,NaN,NaN,NaN,NaN,NaN,NaN
4280000,20.0110066966706,101329.82759724,-0.151083078011791,-0.145433389076187,0.0425569334686924,-0.0143800429113525,9.80804221865807,0.0188214640602621,0.00638258292016346,-0.0156467920260637,0.31337288935906,0.0460468561466048,9.80634913649997,-0.0126540267557193,0.00685217918427954,-9.79998943485386,19.6080966500669,22.9421721933246,33.4747059805481,0.000137237745434459,7.9392904979933e-05,7.9392904979933e-05,9.31782633592066e-05,NaN,NaN,NaN,NaN,NaN,NaN
4300000,19.9849642377998,101335.965576203,-0.0833394279848782,-0.0776897390492742,-0.0207361849628987,0.1297916971852,9.75324309491806,0.00917136492474833,-0.0254620917343416,-0.00792492219276938,0.00487765668730415,-0.159350690171071,9.39448531992001,-0.013348325137568,0.00969795957608529,-9.79998611079608,19.5530725874942,23.046776445896,33.5366492155365,0.000137079061127617,7.93164169449514e-05,7.93164169449514e-05,9.31413950214013e-05,1.90205399966186,1.10262666948556,0.590685914578525,2.07407273774225,-1.0785490839782,-0.0854783067183559
4320000,19.9608995352693,101328.036675529,-0.119993743033818,-0.114344054098214,0.16366828198777,-0.0356177231001606,9.79023518865931,0.0237570584596527,-0.0118133938527083,0.00621467668847616,-0.291333972338521,0.19151794346911,10.1385392908889,-0.0102164520599773,0.00915777867514393,-9.7999903958727,19.5904295010794,23.1498491715418,33.5976655668568,0.000136924971690327,7.92432364700753e-05,7.92432364700753e-05,9.31066399545209e-05,NaN,NaN,NaN,NaN,NaN,NaN
4340000,20.0281561401008,101326.760407319,-0.0746367052026634,-0.0689870162670594,0.0730729828645181,0.151946090961117,9.91295360330066,-0.000717185186498488,0.0137980027169935,0.00711740313574096,-0.152076052769305,0.0205751131934265,9.97026486962755,-0.00890907823833536,0.0125171120759817,-9.799987956637,19.7128137769101,23.2533788444096,33.660604193429,0.000136775377958889,7.91732575487782e-05,7.91732575487782e-05,9.30739042519449e-05,NaN,NaN,NaN,NaN,NaN,NaN
4360000,20.02454305869,101314.885856411,-0.210002860829876,-0.204353171894272,0.167446916089923,-0.144495007172234,9.82954915482083,0.0112753547350728,-0.00714815920511516,-0.00691377060781059,0.299333328233258,-0.164714988571066,9.70649619639487,-0.00560656213543816,0.00976819200789698,-9.79999352800225,19.6297824854018,23.3530122103467,33.7188351982317,0.000136630182107645,7.91063767041705e-05,7.91063767041705e-05,9.30430972178284e-05,NaN,NaN,NaN,NaN,NaN,NaN
4380000,20.0038713220583,101321.224008659,0.188960561370474,0.194610250306078,0.169611542413506,0.0446030698048191,9.61360726944606,0.0156308337837896,-0.00310981123052963,0.0118951225842331,0.158147296571722,-0.355157758207513,9.85814726271083,-0.00218892443431947,0.0108966092590042,-9.79999369757535,19.4135893771594,23.4614907334528,33.7771404115156,0.000136489287641764,7.90424929412628e-05,7.90424929412628e-05,9.30141312750311e-05,NaN,NaN,NaN,NaN,NaN,NaN
4400000,19.962678631339,101320.854256461,0.0334807890682921,0.0391304780038961,0.0454285872192061,0.209880802381331,9.88578715927786,0.0040109709718644,0.015168267987953,-0.0037509294133199,-0.124315688425155,-0.112857930569522,10.0143069587347,-0.00128833230406604,0.0154989558845422,-9.79998765930684,19.6854487507425,23.5654279773157,33.8374694086544,0.000136352599390379,7.89815077004219e-05,7.89815077004219e-05,9.29869218758234e-05,1.94893958919671,0.298393590885604,0.993782925151358,1.70191572699937,-1.32426273811537,-0.0295187542233658
4420000,19.9743411238619,101318.025676275,-0.173885647949182,-0.168235959013578,0.103100662948863,-0.151773919274136,9.78876478632429,-0.00807521426753005,0.00563122644948671,0.00536508038668818,0.105843767818555,0.0429993070979559,10.0436320628027,0.000832738400900446,0.0126595974456386,-9.79999178780979,19.5889438836346,23.6636571931466,33.8917946638192,0.000136220023500044,7.89233248119595e-05,7.89233248119595e-05,9.29613874152534e-05,NaN,NaN,NaN,NaN,NaN,NaN
4440000,19.9357501370099,101348.823757435,-0.0475772904944078,-0.0419276015588039,-0.00661576735444308,-0.246702783118989,9.87529869697463,-0.00636719959136416,0.00131739020894622,0.00107828396658983,0.111318506463282,0.108119036664216,9.85988535607069,0.000712373046042369,0.00778494809306544,-9.7999968819948,19.6754920122831,23.7641828195594,33.9484606635964,0.000136091467428466,7.88678504517938e-05,7.88678504517938e-05,9.29374491470635e-05,NaN,NaN,NaN,NaN,NaN,NaN
4460000,20.0395236058407,101322.408606999,-0.0583083348384659,-0.0526586459028619,-0.0238383692013492,-0.0322281983560725,9.75574207573122,-0.0194715723130478,0.0150433434372087,0.0239944430540018,0.240405502967048,-0.130266558225469,9.7110576007844,0.000230559778375334,0.00727502959226083,-9.79999729697854,19.5557638703522,23.8636744366033,34.0014068679637,0.000135966839938478,7.88149930981305e-05,7.88149930981305e-05,9.29150311020532e-05,NaN,NaN,NaN,NaN,NaN,NaN
4480000,19.9495375111968,101340.870516416,0.096399267604491,0.102048956540095,0.208429632700753,-0.256669089459632,9.99658118974498,-0.0108094799410484,0.0135662014604267,0.0253274396034543,-0.0851347901147728,-0.302864808771721,9.81884604283776,0.00457956161701934,0.00208018963932762,-9.79999870920535,19.7965369551023,23.9660786970515,34.0601308687457,0.000135846051092232,7.8764663489109e-05,7.8764663489109e-05,9.28940600087865e-05,NaN,NaN,NaN,NaN,NaN,NaN
4500000,20.0070487398823,101327.995894909,0.00576312026047945,0.0114128091960834,0.0812114192633997,0.0225161857474471,9.89293548614811,-0.00933971652803853,-0.00549387335068925,-0.0131711131035163,0.168295919632506,0.0312004456046625,9.70136125453592,0.00636813113998588,0.0025931261530735,-9.79999758788759,19.6928743213368,24.0655216971887,34.1143095216081,0.000135729012245567,7.87167745813663e-05,7.87167745813663e-05,9.28744652165517e-05,4.29759577652198,-0.016324322574121,-0.337913158169326,1.31262102636061,-0.644754843747446,-0.110299760642789
4520000,19.9910414353525,101331.037727994,0.356319327284613,0.361969016220217,0.19461999675726,0.192897735153701,9.8264451172394,0.00139569583491025,-0.00261268924235801,0.0163922184989476,0.0108990944803197,0.0050228199749573,9.96134396671114,0.0105559713308595,0.00666622346028658,-9.79999204759545,19.6260962961802,24.1724628143963,34.170794140853,0.000135615636042529,7.86712415094691e-05,7.86712415094691e-05,9.28561786204822e-05,NaN,NaN,NaN,NaN,NaN,NaN
4540000,20.0044675518473,101325.076242594,-0.00203318451719806,0.0036165044184059,0.214509972914199,-0.0647633163306154,9.76319868125071,0.00269726394433399,-0.00660803241780865,0.0246412197829903,0.233071970379643,-0.090761151240648,9.65253171436122,0.0152436444194502,0.00545543763114432,-9.79998662598603,19.5628877450595,24.2699214407503,34.2197767904738,0.000135505836410012,7.86279815461722e-05,7.86279815461722e-05,9.28391345887554e-05,NaN,NaN,NaN,NaN,NaN,NaN
4560000,20.0139489303388,101327.281292935,0.326741899123864,0.332391588059468,0.249008191308248,-0.159323951699631,9.80998345688654,-0.00353894916788426,0.0273589733077539,0.0124898278685885,-0.113491401878499,-0.124135416751539,9.65791770879666,0.0207493132190959,0.0022498893704219,-9.79997777568902,19.6094705683342,24.3742934919919,34.2730398718688,0.000135399528552494,7.8586914063459e-05,7.8586914063459e-05,9.28232698917875e-05,NaN,NaN,NaN,NaN,NaN,NaN
4580000,20.0388269602876,101324.716721421,0.190366239817595,0.196015928753199,0.312357510428867,-0.0595210209958923,9.88410393942478,0.00544114106880506,0.0101683486053043,-0.0107449966598091,0.0724027732720215,-0.204219019521899,9.88303862739084,0.0276939435698793,0.00105692798678766,-9.79996081259475,19.6831881400145,24.4744592988583,34.3246186691082,0.000135296628946839,7.85479604943258e-05,7.85479604943258e-05,9.28085236333489e-05,NaN,NaN,NaN,NaN,NaN,NaN
4600000,19.9862144527679,101319.839627612,-0.179805657687052,-0.174155968751448,0.0959868439815984,0.0383883066876498,9.77242892091092,-0.0145230363547545,-0.0303975252268243,0.0312046003497757,0.028317319620411,0.044793404809791,9.59921890166838,0.0302688311411859,0.00187859227383252,-9.799953074824,19.5720782986154,24.5649079150137,34.36765514172,0.000135197055337137,7.85110442952724e-05,7.85110442952724e-05,9.27948371835282e-05,1.91119450972193,0.854209914140802,-1.10286069037737,1.39691083927848,-1.16870083612612,-0.00817840962127586
4620000,19.9746560226263,101330.464643325,0.234407309883463,0.240056998819067,0.00268946133077637,-0.497943339859661,9.77708873027855,-0.0270939927726679,0.0419936736149361,0.0134097434227118,0.145552084688501,0.160163890200676,9.9467823277125,0.0309539399607758,-0.00845567412873746,-9.79994746696001,19.5765981878057,24.6642856365036,34.4153749766804,0.000135100726729576,7.84760909094631e-05,7.84760909094631e-05,9.27821541134756e-05,NaN,NaN,NaN,NaN,NaN,NaN
4640000,19.9754762623524,101319.153355719,-0.247169241847917,-0.241519552912313,0.117393964533106,0.0157194372443172,9.61477112840839,-0.0233418308983685,-0.00119808964894204,-0.0129835047661818,-0.201603318458191,-0.134289559941116,9.40332663679177,0.0340310896657793,-0.00830106940389369,-9.79993739659509,19.4143153657754,24.7512355425294,34.4520002901372,0.000135007563387289,7.84430277305256e-05,7.84430277305257e-05,9.27704201318613e-05,NaN,NaN,NaN,NaN,NaN,NaN
4660000,20.0271910894122,101309.218476025,0.224618832102489,0.230268521038093,0.0691492145464115,-0.167754039803879,9.82965952019983,-0.00183509709952323,-0.0104273008287453,0.0174812198408515,0.356078162235577,-0.0335421834061861,9.88718903876423,0.0361829230942622,-0.0119696264335651,-9.79992589380753,19.6291249883079,24.8484394725574,34.4983359495719,0.000134917486825196,7.84117840669569e-05,7.8411784066957e-05,9.27595830229874e-05,NaN,NaN,NaN,NaN,NaN,NaN
4680000,20.0446224194147,101326.320512015,-0.0889126145677772,-0.0832629256321732,0.120759194428151,-0.00019683199907309,9.82898321263767,-0.017332701457839,0.00076615940266778,-0.0178978412265795,-0.0127356781232372,-0.10111986390085,9.76174099625559,0.0394549356548703,-0.0122238332673111,-9.79991295297834,19.6284094844742,24.9372338516406,34.5391365680996,0.000134830419804783,7.83822911071063e-05,7.83822911071063e-05,9.27495925864949e-05,NaN,NaN,NaN,NaN,NaN,NaN
4700000,20.0064499650014,101306.12180877,0.241430915133812,0.247080604069416,0.174305938305479,-0.23398998405083,9.97521864185886,-0.00531206966841993,-0.00468812550679048,-0.00937714512419384,0.201528850936035,-0.0900937082289623,10.21467970399,0.0439245369340235,-0.017359709962512,-9.7998861868659,19.77390704831,25.0329311264405,34.5862749606898,0.000134746286328828,7.83544818847092e-05,7.83544818847092e-05,9.27404005786107e-05,2.40922239199499,0.622859948858074,2.98181233407427,2.00069821884136,-1.52383313584743,0.355796804800918
4720000,20.010759527451,101335.48721675,0.288923481904238,0.294573170839842,0.177022676086384,-0.217879239594754,9.77563529932429,-0.00667791994801225,0.0275663037682197,0.00793072349757492,0.252251090028164,-0.20714742284571,9.92737004949953,0.0485249457031925,-0.0222593020597932,-9.79985458326379,19.5741188302905,25.1287343786435,34.6288603802574,0.000134665011636034,7.83282912449455e-05,7.83282912449456e-05,9.27319606548828e-05,NaN,NaN,NaN,NaN,NaN,NaN
4740000,20.0151361843591,101333.385560321,0.106862320107581,0.112512009043185,0.0559695160903692,-0.00811074936048344,9.8153281906103,0.0134764327400495,-0.00867078069866992,0.00715092695876199,0.156406959483688,0.0698731620398177,9.70883752873605,0.0507035169386117,-0.0228927353490099,-9.79984209444409,19.6148615147531,25.2191774825239,34.6685481225524,0.000134586522195571,7.83036558109995e-05,7.83036558109995e-05,9.27242283143529e-05,NaN,NaN,NaN,NaN,NaN,NaN
4760000,19.9675339404473,101341.214395895,0.119165613831539,0.124815302767143,0.0254409490994102,0.083451059036238,9.96390089611285,-0.0221334640577691,0.00966401243303288,0.0104284867448818,0.289798084968289,-0.0837944019795327,10.026329075802,0.0523080736779377,-0.021638638189939,-9.79983651061411,19.763783141847,25.3089252115593,34.710235969658,0.000134510745701494,7.82805139510979e-05,7.8280513951098e-05,9.27171608451216e-05,NaN,NaN,NaN,NaN,NaN,NaN
4780000,20.0564953460233,101320.791658534,-0.172800885756055,-0.167151196820451,0.0657549931155231,-0.123116025223181,10.0002921364092,0.00834296454641436,0.00199513173671856,-0.0423601754282235,0.191259533660098,-0.0392557236609021,9.92432070091746,0.0547909540589524,-0.0246648190341737,-9.79981579408793,19.7994266745497,25.3908372009993,34.7474916059521,0.00013443761106704,7.82588057460078e-05,7.82588057460079e-05,9.27107172712594e-05,NaN,NaN,NaN,NaN,NaN,NaN
4800000,19.9933017674171,101303.115094807,-0.206521397081179,-0.200871708145575,0.0429762558083586,-0.0965330085402482,9.7814649392943,0.00413516872340691,-0.028671051138057,0.026375154989532,0.0211889102999744,-0.162190265558118,10.1134126911211,0.0568254481560978,-0.0271886624220342,-9.7997975308206,19.5807458379109,25.4710364661283,34.7788728217317,0.000134367048418773,7.82384729569727e-05,7.82384729569727e-05,9.2704858301023e-05,2.25440753457862,0.737977998393188,-4.41277411864492,1.90424613913844,-1.51797480713744,0.275878986846454
4820000,19.9853918507937,101333.5375026,-0.0169791819649552,-0.0113294930293513,0.280139557665024,-0.108491367108615,9.82874385056581,0.0088963303156627,0.0183054119870539,-0.0170187431837861,0.255259994662347,-0.193718429857317,9.76287664014295,0.0638491459941483,-0.0300170191182553,-9.79974603064381,19.6263316609021,25.554742604572,34.8127424315252,0.000134298989090579,7.82194589940711e-05,7.82194589940711e-05,9.2699546276337e-05,NaN,NaN,NaN,NaN,NaN,NaN
4840000,20.0015979162856,101323.125200145,-0.117658529520662,-0.112008840585058,-0.0214700533455498,-0.22822509950255,9.79225548378762,0.0133355840100812,0.00178786494654068,-0.0080513908688925,0.013285532275306,-0.202421930662016,9.9158006099831,0.0647308561690645,-0.0353964138537256,-9.79972229250125,19.5912954880819,25.635069648602,34.8434582610632,0.000134233365617491,7.82017088849807e-05,7.82017088849807e-05,9.26947451235017e-05,NaN,NaN,NaN,NaN,NaN,NaN
4860000,19.9650221849774,101337.445350255,0.0819259070151475,0.0875755959507514,-0.0282454907779654,-0.209395362292131,9.8823961710334,-0.019044540998747,-0.00830983831374824,-0.0243751125832921,0.108091848690076,0.0503393661222172,9.66969487838634,0.0655023140332995,-0.0405032583583548,-9.79969738986458,19.6814143789217,25.7191084983242,34.8776771372867,0.000134170111729338,7.81851692441334e-05,7.81851692441334e-05,9.26904203050934e-05,NaN,NaN,NaN,NaN,NaN,NaN
4880000,19.9420510201568,101348.350789487,-0.178162412417038,-0.172512723481434,-0.108451971157325,-0.0896592235783914,9.66884064638785,-0.0176436554740682,-0.000640370050448964,0.00410553502604865,0.115571431345432,-0.24338999001481,9.79476475144597,0.0645895252503396,-0.0432029339614324,-9.7996919186128,19.468856210671,25.795971898915,34.9029956737322,0.000134109162344209,7.81697882422471e-05,7.81697882422471e-05,9.26865387730211e-05,NaN,NaN,NaN,NaN,NaN,NaN
4900000,20.0138599450303,101328.884617109,0.317104597287487,0.322754286223091,0.110752274509356,-0.0192501373713744,9.91159654310386,0.0221209416128284,0.0209920601258902,0.010655346519419,0.0379461516263376,-0.0200899875742473,10.1763426924516,0.0682585040498265,-0.0445144900128773,-9.79966117969411,19.7103950181244,25.8834730052022,34.9389307573587,0.000134050453561719,7.81555155762221e-05,7.81555155762222e-05,9.26830689227089e-05,3.17922656509231,-0.703270415281202,-2.15717675518088,1.83099168036218,-1.24488589400422,0.141152700825083
4920000,19.9815416645335,101321.039714856,0.151151087143582,0.156800776079186,0.0669741458812732,-0.0343151152233319,9.90182743813814,-0.00207644340248098,-0.00866274892316768,0.0113263963801071,-0.0204871230005752,-0.160037997932793,9.87928632321836,0.0710910902313514,-0.0461666698867305,-9.79963339597361,19.7008095269696,25.9659855170484,34.9712563235034,0.000133993922656075,7.81423024393915e-05,7.81423024393915e-05,9.26799805483724e-05,NaN,NaN,NaN,NaN,NaN,NaN
4940000,20.0128944237665,101323.200621014,0.21592567671342,0.221575365649024,-0.000425762477569071,-0.00799528113910598,9.8530667913306,0.00487015740699769,-0.0071190459462789,0.0147259537817633,0.0370464587814576,-0.115979235691363,9.67588648367628,0.0725714079771327,-0.0473003385191375,-9.79961713888457,19.6526464201608,26.0489557539352,35.0024236780445,0.000133939508068934,7.81301014921131e-05,7.81301014921131e-05,9.26772447993608e-05,NaN,NaN,NaN,NaN,NaN,NaN
