t_us,bmp_T,bmp_P,bmp_alt,bmp_alt_rel,ax,ay,az,gx,gy,gz,lis_ax,lis_ay,lis_az,g_bx,g_by,g_bz,a_vertical,kf_h,kf_v,P00,P01,P10,P11,gps_x,gps_y,gps_z,gps_vx,gps_vy,gps_vz
0,19.9886534830635,101320.69404885,-0.00564968893560396,0,-0.00791455560128524,-0.0101207862070638,9.66082358048939,-0.0133414792061977,0.0116661918107688,0.006999923383796,-0.0493250748394015,-0.0681363785468928,9.72004120303443,-0.000158336084725039,-0.000202473233254618,9.7999999966293,-0.13917608585915,0,0,0.00567758101241909,0,0,1,-0.404517884991576,1.1447985198317,1.59940602654981,1.71513802174821,-0.581495549936533,-0.0662614572176161
20000,19.9929033223465,101331.937857261,0.10462446300031,0.110274151935914,0.0339559352274065,0.279182777311303,0.279636661203379,0.00251211320410515,0.0291542856093815,0.00600361373244654,0.308412188075005,-0.205326278433847,-0.045274485113538,-0.000158336084725039,-0.000202473233254618,9.7999999966293,-9.5203696555754,0.0568727962182394,0.190418073599079,0.0029440319863825,0.00968864386072404,0.00968864386072404,0.966163671394338,NaN,NaN,NaN,NaN,NaN,NaN
40000,20.0595556310047,101332.807891708,-0.128132235159694,-0.12248254622409,0.235174545966575,0.28572693224416,-0.0803953697720311,0.0160531364497127,0.0261940154412356,0.00529759949642597,-0.00625477503785699,0.0160021657075961,-0.0388144631016153,-0.000158336084725039,-0.000202473233254618,9.7999999966293,-9.88040507267016,-0.0115742082902909,-0.376909843162607,0.00225178491698472,0.0175699555283364,0.0175699555283364,0.876900335301407,NaN,NaN,NaN,NaN,NaN,NaN
60000,20.0400003278588,101327.699122019,-0.176403494515731,-0.170753805580127,-0.0117444603093849,0.167788843367493,0.0755517953993755,0.0206558980892394,0.0260512002114856,-0.000636022347634751,0.152417561776893,0.206240185072583,0.00316032008543266,-0.000158336084725039,-0.000202473233254618,9.7999999966293,-9.72445148148148,-0.0747131489337865,-0.968059480929083,0.00209345368228757,0.0222335022765739,0.0222335022765739,0.740162644940927,NaN,NaN,NaN,NaN,NaN,NaN
80000,20.0385331122555,101317.031247227,-0.0984476945007693,-0.0927980055651654,-0.0276653738253987,-0.00178275881072178,0.0766570548647936,0.0198821897004937,0.0135377782443564,-0.00728537654713402,0.0416498803017077,-0.0672580408589657,-0.21433768265501,-0.000158336084725039,-0.000202473233254618,9.7999999966293,-9.72334246134648,-0.0936119418666189,-0.963276841211222,0.00208268182287435,0.0235143703806059,0.0235143703806059,0.587205732517671,NaN,NaN,NaN,NaN,NaN,NaN
100000,19.9395753917927,101320.814287747,0.174741998840654,0.180391687776258,0.104431631503281,0.186673822938292,0.0463578197520595,0.00474939651351651,0.000916974715823802,0.00483159132431247,-0.227580850722524,0.143358477672265,0.0737610304622662,-0.000158336084725039,-0.000202473233254618,9.7999999966293,-9.75364772431982,-0.00634501646112193,0.188222415792974,0.00207434158126099,0.0224404982528078,0.0224404982528078,0.448526452711363,-0.481933177913445,0.391070344369665,-0.390560975747372,1.89384323287407,-0.607138401049631,-0.501094885782089
120000,20.0477795698282,101314.620420183,-0.307754229636371,-0.302104540700767,0.127044969512637,0.0218196998729632,0.106933072902624,0.037678551496179,-0.0178917482806763,0.0258389435216536,-0.0869848708999284,-0.0845925175028486,0.153875572972212,-0.000158336084725039,-0.000202473233254618,9.7999999966293,-9.69306943057377,-0.109104381530943,-0.873819194946519,0.0020307480630257,0.0202496927294436,0.0202496927294436,0.33776665053142,NaN,NaN,NaN,NaN,NaN,NaN
140000,20.0265974228891,101332.339108713,-0.0322470751207454,-0.0265973861851414,-0.111893266455266,0.0333345005623723,-0.128710005148241,0.000524776636272034,0.0164971192955996,0.0101715698733532,-0.0639179743347034,-0.00100340920469155,0.0468601612513985,-0.000158336084725039,-0.000202473233254618,9.7999999966293,-9.92870888598177,-0.0923570034311185,-0.567571179910444,0.00195630014590529,0.0177547409401567,0.0177547409401567,0.254218629124933,NaN,NaN,NaN,NaN,NaN,NaN
160000,19.9744840172711,101326.412813029,0.0586132149407556,0.0642629038763596,-0.00570616697319636,-0.0390987424514275,0.111449922588618,0.0530970800103821,-0.0135694824499791,0.0230925628586054,0.265409519299627,0.345169171489338,0.0924743307501387,-0.000158336084725039,-0.000202473233254618,9.7999999966293,-9.68854917745574,-0.0488610656937545,-0.114711649881396,0.00186446004001573,0.0153922244523634,0.0153922244523634,0.193355516168222,NaN,NaN,NaN,NaN,NaN,NaN
180000,19.9309094822475,101331.041439485,-0.481735359546547,-0.476085670610943,-0.1304782190539,0.0549573057394949,0.0274588487362307,0.0344025046479552,-0.00298720052410154,0.028312662649303,0.557836857175998,0.162926224441906,0.422122959482187,-0.000158336084725039,-0.000202473233254618,9.7999999966293,-9.7725401786174,-0.0511681082591061,-0.115992606653766,0.00255796552864858,0.0192881349167666,0.0192881349167666,0.194372503665672,NaN,NaN,NaN,NaN,NaN,NaN
200000,20.0283918556496,101320.268000322,-0.13358646543052,-0.127936776494916,0.0183886882295098,-0.0605764843124193,0.146811246124094,0.00478676204716753,0.010664565357442,0.0003982975250799,-0.014869999941741,-0.123283162973596,0.361215267570894,-0.000158336084725039,-0.000202473233254618,9.7999999966293,-9.6531877994852,-0.0813072611835919,-0.304487286433321,0.00213418791319439,0.0145396568169585,0.0145396568169585,0.136468556097275,1.55657115576462,2.39509418698809,0.162132153485319,1.81204142587581,-0.541008001826343,-1.80791965694051
220000,20.0026122939739,101339.755117096,-0.261002742109131,-0.255353053173527,0.0842199918498868,-0.042890592658154,0.0437777441467223,0.0302233820746778,0.00957140894565462,0.0121106014647416,0.33111823008722,0.0168736963625795,0.131790010907757,-0.000158336084725039,-0.000202473233254618,9.7999999966293,-9.75622273044658,-0.142281678753415,-0.648441883827499,0.00186563047486445,0.0116522222532926,0.0116522222532926,0.102339650043474,NaN,NaN,NaN,NaN,NaN,NaN
240000,20.0433511455763,101339.535377993,0.150314371657571,0.155964060593174,0.203915631397625,0.0671446778867691,0.17199648947494,-0.0104933959282153,0.0103729023168621,0.0184494883967453,-0.252438369139278,-0.295482784960905,0.030824871105985,-0.000158336084725039,-0.000202473233254618,9.7999999966293,-9.62800819244164,-0.0638722336231612,-0.118903794268886,0.00167646532854712,0.00970247238192823,0.00970247238192823,0.0801992097101695,NaN,NaN,NaN,NaN,NaN,NaN
260000,19.9516867017218,101324.009333198,-0.474081075899433,-0.468431386963829,0.154603546835829,-0.104347960476679,0.0798355885262089,0.0156366349049095,-0.0127626519316471,0.0379841634249192,0.14056109682024,-0.0167379206611431,0.361285370515919,-0.000158336084725039,-0.000202473233254618,9.7999999966293,-9.72016475350649,-0.0662485225786073,-0.11872510127573,0.00209742002033694,0.0113520598215408,0.0113520598215408,0.0815587325057126,NaN,NaN,NaN,NaN,NaN,NaN
280000,20.0360536327659,101316.11518916,-0.241679544982471,-0.236029856046867,0.154021859044282,-0.116286904470499,0.0453538895664989,0.0208314960703997,-0.00131678257934632,0.02612830279577,-0.0474517090392561,0.131068720675988,0.223185646691501,-0.000158336084725039,-0.000202473233254618,9.7999999966293,-9.7546461963912,-0.120799084385085,-0.38249889983001,0.00177952844531313,0.00897978128105429,0.00897978128105429,0.0626008160192794,NaN,NaN,NaN,NaN,NaN,NaN
300000,19.9614057712103,101319.552752958,-0.0141296381985206,-0.00847994926291669,0.0366927938207468,-0.107107401477755,0.0864829124295482,0.0290832545450754,0.0135170990936734,0.01543347388431,0.563573323493016,0.153197802177136,-0.00296712084912584,-0.000158336084725039,-0.000202473233254618,9.7999999966293,-9.71351546754014,-0.0954750870648922,-0.226484488160174,0.00156968049414698,0.00746165014053973,0.00746165014053973,0.0507099642877735,-0.660597865693362,0.740024004827724,-1.75231087568976,1.98340694527361,-1.10368970471008,-3.02509432651353
320000,19.9548899376121,101325.113354611,-0.265416543449285,-0.259766854513681,0.287393512723584,0.268862966694588,0.105930177139626,0.0245471852704984,0.0275747749344702,-0.00844584850394208,0.317954769786034,-0.144829248322939,0.0603220418854517,-0.000158336084725039,-0.000202473233254618,9.7999999966293,-9.6940800210925,-0.1397242433332,-0.405566881454216,0.00141971069404233,0.00641516303345684,0.00641516303345684,0.0427485376153317,NaN,NaN,NaN,NaN,NaN,NaN
340000,19.9804512589963,101324.523595116,-0.534613028105437,-0.528963339169834,0.0940279658986616,0.0113433926622843,0.43210022860955,0.0193873980988968,0.00842617444526367,0.0203991719910568,0.18907089296988,0.225098604892153,0.418185171050762,-0.000158336084725039,-0.000202473233254618,9.7999999966293,-9.36790152508533,-0.147777530887021,-0.399761873927892,0.00169454572769036,0.00733504872577388,0.00733504872577388,0.0444405529812373,NaN,NaN,NaN,NaN,NaN,NaN
360000,20.0202627781213,101319.711911884,-0.633877777835725,-0.628228088900121,0.237735100418896,-0.0107385603866359,0.170324706581281,0.0391759787103505,0.0122568879330326,-0.00271650903578577,0.298821520223313,0.0273251248627778,0.185909560494037,-0.000158336084725039,-0.000202473233254618,9.7999999966293,-9.62967891263791,-0.15576709246048,-0.399194283417921,0.00200723050816989,0.00830862570556236,0.00830862570556236,0.0463276344531962,NaN,NaN,NaN,NaN,NaN,NaN
380000,20.0176830442722,101327.447607321,-0.598635813223723,-0.592986124288119,0.125288907761935,0.168866125273357,0.456708085462268,0.0425345196002933,0.0162471391923611,0.028804469946262,0.243515305761845,-0.0460658617565431,0.519672386783303,-0.000158336084725039,-0.000202473233254618,9.7999999966293,-9.34329742781987,-0.163688027740005,-0.392899244534643,0.00236002890047682,0.00934170195952135,0.00934170195952135,0.0484092444005733,NaN,NaN,NaN,NaN,NaN,NaN
400000,20.0035279326113,101321.727537234,-0.431151462328551,-0.425501773392947,-0.0714594215002165,0.0456600919718926,0.498200833234071,-0.000106872555524728,0.00248900636686968,0.0356895118236531,0.402851400142324,-0.0106848677234941,0.176110181065321,-0.000158336084725039,-0.000202473233254618,9.7999999966293,-9.30179895574764,-0.254158713093402,-0.699059576768487,0.00185856330497339,0.00704196000553053,0.00704196000553053,0.0378101456125172,2.35628131443251,1.7507719826248,0.769768689718149,2.01167303301334,-0.982271532588636,-3.7682125497554
420000,19.9896823206056,101314.745161417,-0.80130224982247,-0.795652560886867,0.140053223650259,-0.0848278271468648,0.364054496945198,0.051800074938169,-0.0126729259546014,0.00265580142719879,0.266739474990514,0.0828737904196951,0.594771867950446,-0.000158336084725039,-0.000202473233254618,9.7999999966293,-9.4359460133958,-0.268130963155445,-0.698165429435766,0.00215736299142632,0.0079088036832232,0.0079088036832232,0.0399660188339849,NaN,NaN,NaN,NaN,NaN,NaN
440000,20.0383710640198,101322.720777364,-1.09223945255189,-1.08658976361628,0.0536157100485363,0.0885187395472192,0.189706481775322,0.0113914003212101,0.00544641659323422,0.0129100826607256,0.435864105731938,-0.0016516147063015,0.36421168565523,-0.000158336084725039,-0.000202473233254618,9.7999999966293,-9.61029621338962,-0.282120205291812,-0.700758784200888,0.00249216658050093,0.00884310129370223,0.00884310129370223,0.0423111234729419,NaN,NaN,NaN,NaN,NaN,NaN
460000,19.9878795502067,101324.481705153,-0.660563597615978,-0.654913908680375,0.111577720799049,0.0712513090706297,0.370030667209477,0.0248303669872859,-0.00136068575688518,0.00391638690875436,0.132816042997336,-0.0324864052872647,0.417154207598061,-0.000158336084725039,-0.000202473233254618,9.7999999966293,-9.42997260774049,-0.41602226873848,-1.11186304733184,0.00190812060575559,0.00655873129909844,0.00655873129909844,0.0335302586408484,NaN,NaN,NaN,NaN,NaN,NaN
480000,20.0276311921272,101333.003065511,-0.923288249200774,-0.91763856026517,0.0262143128633927,0.0667336891015034,0.631408953352244,0.00259620876610262,-0.000629365738314037,0.00386701224581193,-0.103445437783132,-0.022601841319362,0.710206103590799,-0.000158336084725039,-0.000202473233254618,9.7999999966293,-9.16859284915651,-0.438258742444657,-1.11178432328591,0.00218628455816388,0.00736124727220736,0.00736124727220736,0.0358864488191218,NaN,NaN,NaN,NaN,NaN,NaN
500000,19.9928966177017,101318.589365614,-1.094628360147,-1.08897867121139,0.250318662198609,-0.151227984439496,0.391525503257731,-0.0020060543736534,-0.00531427957708663,-0.00525532114750788,0.135270160607991,-0.284989031715475,0.427969613068097,-0.000158336084725039,-0.000202473233254618,9.7999999966293,-9.4084754167604,-0.460541618877736,-1.11650332002195,0.00249799681213341,0.00823705310228383,0.00823705310228383,0.0384239840221132,-0.130736168689232,1.70126545791497,-1.32640441951611,1.73674526890135,-0.780667980356486,-5.02283978816068
520000,19.9814564273016,101325.734400122,-1.62504394015877,-1.61939425122316,-0.135507961672846,0.109266634492529,0.380965935273536,0.00747957944320183,-0.00475617397874329,0.0092339224514568,-0.155646282516672,0.241243974558473,0.544986295705501,-0.000158336084725039,-0.000202473233254618,9.7999999966293,-9.41903413299716,-0.482920945283204,-1.12142932052484,0.00284629655854045,0.009191524812186,0.009191524812186,0.0411421028456592,NaN,NaN,NaN,NaN,NaN,NaN
540000,19.9960557690929,101327.190438335,-1.27430529210749,-1.26865560317189,0.140052467583079,-0.0221968328963218,0.569524822406617,0.0110503378155842,-0.0108100055919026,0.0213012082625316,0.16464436159762,-0.0205977356606309,0.257799695447201,-0.000158336084725039,-0.000202473233254618,9.7999999966293,-9.23047698198262,-0.50536103654505,-1.12257980565978,0.00323443809007575,0.0102300426134703,0.0102300426134703,0.0440402726238737,NaN,NaN,NaN,NaN,NaN,NaN
560000,19.9808046216518,101307.932259525,-1.60056620259102,-1.59491651365541,0.0437816729604203,-0.0926372139500688,0.718576036480456,0.00455502998753796,-0.0061958679166471,0.0374145317415892,0.0920197725532316,-0.180773801694613,0.290255044624061,-0.000158336084725039,-0.000202473233254618,9.7999999966293,-9.08142275720164,-0.527794316425136,-1.12074818234885,0.00366589121907368,0.011358003552473,0.011358003552473,0.0471182158333166,NaN,NaN,NaN,NaN,NaN,NaN
580000,20.021311936678,101328.231818244,-1.53045141489427,-1.52480172595867,0.117975576132618,-0.0830238614115308,0.709163154359047,-0.00538311411457706,-0.0280354388651362,-0.0272334936704252,0.155195910257316,0.0970206828756911,0.449209859508433,-0.000158336084725039,-0.000202473233254618,9.7999999966293,-9.09083703666866,-0.550192862991691,-1.11910647430661,0.00414434143037362,0.0125807941687629,0.0125807941687629,0.0503756470809861,NaN,NaN,NaN,NaN,NaN,NaN
600000,20.0002732266426,101317.332004725,-1.94633810396225,-1.94068841502665,0.178797798692455,-0.188839144864615,0.391159938688894,0.00701418540925829,0.00142060791650043,0.0115137291110989,-0.445519085118148,0.126695384417807,0.774228889809531,-0.000158336084725039,-0.000202473233254618,9.7999999966293,-9.40883904871821,-0.572622190384225,-1.12382626494678,0.00467368893599907,0.0139037633223501,0.0139037633223501,0.0538120890491329,-0.771434024779656,1.56676409541056,-4.10742909441084,2.16829188039416,-0.48184211304817,-4.8042969094151
620000,19.9793246995917,101322.389465185,-1.80432310035014,-1.79867341141453,0.0653760794302575,-0.186563589977866,0.720892341564349,0.0201388773035715,-0.0291087790253363,0.0109942457611353,-0.00492496526739522,0.26821922948798,0.51785590007523,-0.000158336084725039,-0.000202473233254618,9.7999999966293,-9.07910486044474,-0.595079924765162,-1.12194717314695,0.00525804617640885,0.0153321711349682,0.0153321711349682,0.0574265764150179,NaN,NaN,NaN,NaN,NaN,NaN
640000,20.0324673194695,101344.829565037,-1.63780096983606,-1.63215128090046,-0.00508455287092541,0.0562239585718381,0.670361684824721,-0.00637335221161419,-0.0266382000729893,-0.0135002894845267,0.0721396283360623,-0.139670395892457,0.514202937799389,-0.000158336084725039,-0.000202473233254618,9.7999999966293,-9.12963939487304,-0.617510200954357,-1.12108044577249,0.00590173830490639,0.0168713980543029,0.0168713980543029,0.0612191292938716,NaN,NaN,NaN,NaN,NaN,NaN
660000,19.9888753360515,101337.312608417,-1.65478628799544,-1.64913659905984,0.00334606082271549,-0.0418800808787336,0.681629607281576,-0.022402655624957,-0.0134158266253992,-0.0345202567268222,0.316824994096357,-0.373260078927488,0.783144849657346,-0.000158336084725039,-0.000202473233254618,9.7999999966293,-9.11836958174948,-0.639920896344076,-1.11998909319943,0.00660930393968241,0.0185267340429779,0.0185267340429779,0.0651892009898255,NaN,NaN,NaN,NaN,NaN,NaN
680000,20.001726842886,101331.616087167,-2.37025023482818,-2.36460054589258,-0.189195233993839,-0.262856202373417,0.974688848272609,-0.00634427174206395,0.000201537392432765,-0.0118946242688021,-0.0331850166215776,-0.057425384979459,0.929169429792167,-0.000158336084725039,-0.000202473233254618,9.7999999966293,-8.82530266453429,-0.66225116099938,-1.11303737233098,0.00738549325431969,0.0203034674153081,0.0203034674153081,0.0693363462741789,NaN,NaN,NaN,NaN,NaN,NaN
700000,20.0258100803026,101323.723302193,-2.06372094720093,-2.05807125826533,-0.029958419440948,0.0586414035728589,0.777343494119137,-0.0174514193956429,-0.0150733751252323,0.00386911015567292,0.0300052548728188,-0.426411140677167,1.13036714793404,-0.000158336084725039,-0.000202473233254618,9.7999999966293,-9.02265723368045,-0.684481923719765,-1.11003889970747,0.00823526950844809,0.022206967032053,0.022206967032053,0.0736606944624447,0.642705490978667,-0.00808615414425451,-2.09927462578811,1.96132725503405,-0.944976210184491,-7.24369754886161
720000,20.0120066951812,101318.138226007,-2.41715624130641,-2.41150655237081,0.10349668751904,-0.124717609901251,0.810647737132955,0.00838631666124542,-0.0261956458701621,-0.0140697730030518,0.136671930630306,0.116591924890398,0.884941367033975,-0.000158336084725039,-0.000202473233254618,9.7999999966293,-8.98935135858286,-0.706646082250603,-1.1063769533764,0.00916380768251822,0.0242424454476554,0.0242424454476554,0.0781614497028182,NaN,NaN,NaN,NaN,NaN,NaN
740000,19.9673334079042,101328.186831731,-2.60758995740189,-2.60194026846628,0.287118086289404,-0.0768499069450468,1.01659946282641,0.00306979536416307,-0.010360605700317,0.00836833158602259,0.0651355291904417,-0.244423437078558,0.810027984674986,-0.000158336084725039,-0.000202473233254618,9.7999999966293,-8.78340358865636,-0.728695844491982,-1.09859927076147,0.0101764922706844,0.0264151680229879,0.0264151680229879,0.082838262169839,NaN,NaN,NaN,NaN,NaN,NaN
760000,20.0330576121755,101323.20152926,-2.70629071264162,-2.70064102370601,0.108987584095765,-0.130922854429926,1.06405831522554,-0.00502275264296011,-0.0150931639607483,-0.0326568597862922,-0.105539030412268,-0.201415953360893,1.23661955063701,-0.000158336084725039,-0.000202473233254618,9.7999999966293,-8.73594074108878,-0.750580628530096,-1.08987913304992,0.0112789196497512,0.0287304657044346,0.0287304657044346,0.0876912169864068,NaN,NaN,NaN,NaN,NaN,NaN
780000,20.0152414906901,101314.48265885,-2.65170826390629,-2.64605857497068,0.146258050694274,-0.223236412708778,1.13760248386488,-0.0159170321616386,0.0199689495483963,-0.0108084536749288,-0.0072691718676275,-0.145271112109024,0.939865047973737,-0.000158336084725039,-0.000202473233254618,9.7999999966293,-8.66239526739669,-0.772276376409298,-1.07969565487025,0.0124768983680215,0.0311936146216753,0.0311936146216753,0.0927200995054867,NaN,NaN,NaN,NaN,NaN,NaN
800000,19.9811511847029,101324.825625072,-3.15462414716585,-3.14897445823024,0.0443067295137488,0.0671601814957465,1.03060973754285,-0.00417903512668647,0.00483852223347554,-0.000960152219915714,-0.116397438260424,-0.137472172327748,1.24416077662575,-0.000158336084725039,-0.000202473233254618,9.7999999966293,-8.7693923662293,-0.793789941772892,-1.07166088148918,0.013776448230966,0.0338099020242189,0.0338099020242189,0.0979247992389827,-0.618739203724,-0.0558156811902883,-2.45639060172906,1.4382947426051,-0.996572516042392,-7.20020870734736
820000,19.9799209344398,101317.959517272,-3.41016950123541,-3.4045198122998,0.0935774000632296,-0.202277955143691,1.16024127872415,-0.00929112929004537,-0.0121602858499141,-0.0145761398511421,0.255916224971257,0.212217512738039,1.42803818078036,-0.000158336084725039,-0.000202473233254618,9.7999999966293,-8.63975605441037,-0.815116952964676,-1.06104023768922,0.015183798689091,0.0365845205855568,0.0365845205855568,0.103304739944421,NaN,NaN,NaN,NaN,NaN,NaN
840000,20.0425340083017,101333.869123783,-3.28778306341502,-3.28213337447942,-0.116415938617036,-0.0021698913507623,1.19358497641683,0.0147434114904216,-0.0223543272586511,0.0175630037961682,-0.321271651400091,-0.122366226390688,1.32289716184119,-0.000158336084725039,-0.000202473233254618,9.7999999966293,-8.60641309826015,-0.836224972525988,-1.04976171844193,0.0167053890760151,0.0395227751258706,0.0395227751258706,0.108860012988737,NaN,NaN,NaN,NaN,NaN,NaN
860000,20.0110123607093,101321.286893913,-3.23407129514187,-3.22842160620626,0.216295924842741,0.00666302324653519,1.16778192877146,-0.00645193676031795,0.00411860328993012,-0.0279835181549513,-0.0618602516445846,-0.368241306821879,1.21382117626092,-0.000158336084725039,-0.000202473233254618,9.7999999966293,-8.63222170392956,-0.857112677845401,-1.03900881349939,0.0183478700581497,0.0426299263508967,0.0426299263508967,0.114590486995534,NaN,NaN,NaN,NaN,NaN,NaN
880000,20.0040298681689,101330.316553531,-3.45319067978998,-3.44754099085438,-0.0144612499365917,0.0959822087007527,1.33410525591314,-0.000368755250552499,-0.0445426504648378,0.00813355302984783,-0.153942770725659,-0.142312667051461,1.58707726249197,-0.000158336084725039,-0.000202473233254618,9.7999999966293,-8.46589649394271,-0.877752149105926,-1.02493831255309,0.0201181019545263,0.045911195356176,0.045911195356176,0.120495864645014,NaN,NaN,NaN,NaN,NaN,NaN
900000,20.03939312516,101320.758895054,-3.7263954533773,-3.7207457644417,-0.154126843537218,-0.109357734078785,1.67486672238485,-0.011887966376498,-0.0125249490570002,-0.0126956803077788,-0.166879980686441,-0.0794377620905296,1.53246353005251,-0.000158336084725039,-0.000202473233254618,9.7999999966293,-8.12512852861419,-0.898042171935593,-1.00406397041368,0.0220231564751482,0.0493719339851633,0.0493719339851633,0.126576526693043,2.5278869265468,0.882681591992465,-3.63441522762585,2.02636690285226,-0.222567438751738,-8.39941472233388
920000,20.0677180288883,101325.327274639,-4.10323673936788,-4.09758705043228,-0.0498550184878353,-0.196052947399716,1.1444298488193,-0.0159408975109824,-0.0227084521226403,-0.00278709509627323,0.283378800444672,-0.356376958873295,1.57880926512969,-0.000158336084725039,-0.000202473233254618,9.7999999966293,-8.65556529552101,-0.918020963260101,-0.993815162037131,0.0240703227707676,0.0530176662838909,0.0530176662838909,0.13283362431075,NaN,NaN,NaN,NaN,NaN,NaN
940000,19.9574677393194,101326.240431273,-4.04604153544313,-4.04039184650752,-0.0470708921353353,-0.171674350391089,1.41906473604014,0.0194239710827216,-0.00400543635431521,-0.0116918581169642,-0.203303118832756,-0.0579197804028724,1.49505177106577,-0.000158336084725039,-0.000202473233254618,9.7999999966293,-8.38093095705187,-0.937739932760562,-0.978081788008975,0.0262670981352494,0.0568532594778364,0.0568532594778364,0.139265131837964,NaN,NaN,NaN,NaN,NaN,NaN
960000,19.9782198690721,101322.431320148,-4.57074834512771,-4.56509865619211,0.0761439745547832,-0.0232141200202774,1.37892793529346,-0.0117551800873746,-0.019078978658742,-0.0287964087143483,-0.50806545223752,-0.0710031427725759,1.4605286842708,-0.000158336084725039,-0.000202473233254618,9.7999999966293,-8.42107281580336,-0.957152386201556,-0.963163556090376,0.0286211862524163,0.0608841807600795,0.0608841807600795,0.145872007751628,NaN,NaN,NaN,NaN,NaN,NaN
980000,19.968257205194,101342.166517369,-4.53825177092201,-4.5326020819864,-0.0342752223540537,0.00680179218943527,1.48860264340327,-0.00817056229880809,-0.00538938976465222,0.0277797053385862,-0.0446315301234035,-0.0311024572375891,1.53409316783072,-0.000158336084725039,-0.000202473233254618,9.7999999966293,-8.31139694386142,-0.976244654690369,-0.946063292790972,0.0311405049091568,0.0651156623013274,0.0651156623013274,0.152654052628637,NaN,NaN,NaN,NaN,NaN,NaN
1000000,20.0127818745701,101331.403252458,-4.99583361219024,-4.99018392325463,-0.0859175640571769,-0.143770584069959,20.8479999973283,-0.015236731325452,-0.0101084050590827,-0.00966811736827231,-0.119566464663227,0.405174895602173,20.7055952966346,-0.000158336084725039,-0.000202473233254618,9.7999999966293,11.0480043486828,-0.991123167143888,-0.541787952560909,0.0338331840458244,0.069553082958832,0.069553082958832,0.159611737984267,3.42623998868409,0.0486570916074045,-2.27137895188675,2.02429601928916,-0.725381937649945,-8.82797917853567
1020000,19.9716958935837,101334.570172675,-5.04887181434326,-5.04322212540766,0.19997728407039,-0.118894077713074,20.6012838220006,-0.00581924714420958,-0.032162650366596,0.000426277674021526,0.101485819810402,-0.221716795621583,20.7435133719483,-0.000158336084725039,-0.000202473233254618,9.7999999966293,10.8012830403483,-0.997967902722382,-0.14268560528853,0.0367079939003523,0.0742235468779825,0.0742235468779825,0.166839160068269,NaN,NaN,NaN,NaN,NaN,NaN
1040000,20.0081566149929,101341.780371061,-5.18751149625739,-5.18186180732179,-0.189523591141765,0.29772691540574,20.5114198252195,-0.00979927872830265,0.00943559473902951,0.0311056832114356,0.131591121628293,-0.303166018231246,20.4237413471334,-0.000158336084725039,-0.000202473233254618,9.7999999966293,10.7114167290515,-0.996849648080931,0.254511069433638,0.0397744627580276,0.0791374476238557,0.0791374476238557,0.174349483682889,NaN,NaN,NaN,NaN,NaN,NaN
1060000,20.0240711525518,101328.101720123,-5.32937914870859,-5.32372945977298,-0.05749024734614,0.0222233167940931,20.5754697206315,-0.0307912374902074,-0.00728085149978724,-0.0104630295914199,0.142653214616701,-0.300955375809091,20.470238166741,-0.000158336084725039,-0.000202473233254618,9.7999999966293,10.7754701832641,-0.987774986915818,0.652955047077734,0.0430418770390603,0.0842715790023142,0.0842715790023142,0.182011998590103,NaN,NaN,NaN,NaN,NaN,NaN
1080000,20.0462189249987,101333.362545612,-5.31832918937777,-5.31267950044217,-0.203943195513657,0.0432366488488386,20.2400562580095,-0.0384440755812188,-0.00316588243420746,0.00930070012485219,0.133417353646666,0.0698944652482175,20.3236795037924,-0.000158336084725039,-0.000202473233254618,9.7999999966293,10.4400586528136,-0.970799962575758,1.0445473869282,0.0465187127697443,0.0896088264711032,0.0896088264711032,0.189735786433872,NaN,NaN,NaN,NaN,NaN,NaN
1100000,19.9926885009582,101314.025389253,-5.65275029273818,-5.64710060380258,-0.0226745064128164,0.0488668420147996,20.3103182861234,-0.00119289443161069,-0.0180685901015918,0.0160135891007697,0.144266947977912,0.310253922029425,20.428322258921,-0.000158336084725039,-0.000202473233254618,9.7999999966293,10.5103176358688,-0.945981676081629,1.43728126248468,0.0502130805316654,0.095148420825199,0.095148420825199,0.197507626482781,-0.0325451734822433,2.40768542178575,-3.5553395226606,1.88968010395883,-0.562396529032912,-7.51757013578012
1120000,20.0309136421906,101317.332742755,-5.76893565444418,-5.76328596550858,0.250686754949205,-0.117074204094333,20.2242568765519,0.00250147342910433,-0.0065108771484373,0.0107766554387769,-0.191161509136812,0.123468621693803,20.4177498096875,-0.000158336084725039,-0.000202473233254618,9.7999999966293,10.4242552381298,-0.913329790391523,1.82790730652594,0.0541330377486484,0.100888464643589,0.100888464643589,0.205312550410643,NaN,NaN,NaN,NaN,NaN,NaN
1140000,19.9689898885159,101303.648480323,-6.05303273899998,-6.04738305006438,-0.0904462086268762,-0.054889027626753,20.2314296119246,-0.00386602315542867,-0.00954787129487919,0.00290278016626958,0.217558580623194,-0.317306647845298,20.0997994905948,-0.000158336084725039,-0.000202473233254618,9.7999999966293,10.4314322003188,-0.872869007171982,2.21817101542812,0.0582865599008619,0.106826770904681,0.106826770904681,0.213138137929556,NaN,NaN,NaN,NaN,NaN,NaN
1160000,20.0303757899593,101318.578518545,-6.1015118349502,-6.09586214601459,0.122539402617788,-0.0210242836297219,20.0773022295085,-0.0174325833256292,-0.0302801004252437,0.0192699879469527,0.036624001593686,0.121399094752124,20.0367548656913,-0.000158336084725039,-0.000202473233254618,9.7999999966293,10.2773006771382,-0.824640038837717,2.6047258179985,0.0626815226415578,0.112960545310504,0.112960545310504,0.220973974007227,NaN,NaN,NaN,NaN,NaN,NaN
1180000,19.9614571123648,101321.391872427,-6.21050154448983,-6.20485185555423,-0.194819042339348,-0.211732991938636,20.1825348389491,0.00375949754616518,-0.0208541128714231,-0.033364842759443,0.0583432498517135,-0.126064420257847,19.6935609037769,-0.000158336084725039,-0.000202473233254618,9.7999999966293,10.3825423541653,-0.768666320334971,2.99264603227611,0.0673256893794074,0.119286996141514,0.119286996141514,0.228814885914237,NaN,NaN,NaN,NaN,NaN,NaN
1200000,19.9904962304441,101319.107347648,-6.5960818786319,-6.5904321896963,0.182821774830889,-0.046807803121911,19.8601424212395,-0.0237530388072917,0.0204157801995032,0.0233049361332587,-0.0104513931377026,-0.197690262916456,20.1824453608636,-0.000158336084725039,-0.000202473233254618,9.7999999966293,10.0601404276783,-0.705007289848168,3.37325701640419,0.0722266979698802,0.125802655727405,0.125802655727405,0.236659354970823,-0.668883176060436,1.42164230663071,-6.74399054439104,2.03734878896147,-0.790021123394311,-6.22768358242805
1220000,20.0287314262444,101333.917631644,-6.40088660506932,-6.39523691613372,0.0834794310506037,-0.0442511828687281,19.7189946695397,-0.000738219817682037,-0.00837950961353266,0.0145625670695824,-0.18433577498486,-0.266077443553459,20.1474256018626,-0.000158336084725039,-0.000202473233254618,9.7999999966293,9.91899422825474,-0.633773878723405,3.75008409607209,0.0773920676758733,0.132505115419313,0.132505115419313,0.244516524382798,NaN,NaN,NaN,NaN,NaN,NaN
1240000,19.9681764889672,101318.173199758,-6.44753688097888,-6.44188719204327,0.137266492054941,-0.154192861397243,19.8575216348666,-0.00751188474135459,-0.0115327726775423,-0.013681518614923,0.24283325771945,-0.0348923390550669,20.20357572475,-0.000158336084725039,-0.000202473233254618,9.7999999966293,10.057522595964,-0.554986866640841,4.12861711218425,0.0828292222585122,0.13939204720872,0.13939204720872,0.252403223600622,NaN,NaN,NaN,NaN,NaN,NaN
1260000,19.9775651986167,101318.929985132,-6.59537764191412,-6.58972795297852,-0.397040395591677,0.0446281322993121,19.776670308976,-0.0163994437457211,-0.000306897357462439,-0.00254091538879711,0.0793275921044058,-0.147436524860628,19.7645263367028,-0.000158336084725039,-0.000202473233254618,9.7999999966293,9.97667579501251,-0.468657192149235,4.50435033697639,0.0885454922579907,0.146461163981007,0.146461163981007,0.260345466760855,NaN,NaN,NaN,NaN,NaN,NaN
1280000,20.0277824556329,101325.783824008,-6.83703636971885,-6.83138668078325,0.177016212645073,-0.0354677691262527,19.7985561204345,-0.00567629701185856,0.0107833621117753,-0.0048935675082308,0.278938951034306,-0.0765968990421775,19.9676414558436,-0.000158336084725039,-0.000202473233254618,9.7999999966293,9.99855398640232,-0.374821342616449,4.87923461630217,0.0945481496385544,0.153711899334912,0.153711899334912,0.268384324307241,NaN,NaN,NaN,NaN,NaN,NaN
1300000,20.0049524239354,101318.203016514,-7.00895864549459,-7.00330895655899,0.0766578111713722,0.1367208304685,19.7989258298764,-0.000468722578183327,-0.0415928345492742,-0.00664397210972497,-0.240535993433009,0.0125962674056844,19.6575357417682,-0.000158336084725039,-0.000202473233254618,9.7999999966293,9.99892175980066,-0.273501686031652,5.2527310421775,0.100844470555055,0.161145104638029,0.161145104638029,0.276575953886139,-0.757968676076909,3.01979798513229,-9.9757883032573,1.53154399371756,-0.716870117814336,-5.47765246501982
1320000,20.0145423920613,101329.485621173,-6.63428296680961,-6.62863327787401,-0.0896580957324297,-0.217789250811608,19.8473185301383,-0.0114158685373883,0.00487852359647528,0.017736310378022,-0.161467483298469,0.0610210312933532,19.7919005165418,-0.000158336084725039,-0.000202473233254618,9.7999999966293,10.0473244715369,-0.164717429443212,5.62569461666651,0.107441810136501,0.168763969070207,0.168763969070207,0.284994881074141,NaN,NaN,NaN,NaN,NaN,NaN
1340000,20.0192320148961,101322.220017688,-7.13610306378127,-7.13045337484567,0.125858082526115,-0.122143922037941,19.661697714784,0.00072165467927787,-0.0222603967353722,0.00429937112475401,-0.134777759209149,0.0597087922635642,19.3397571154615,-0.000158336084725039,-0.000202473233254618,9.7999999966293,9.8616981981233,-0.0485271184591424,5.99333648174047,0.11434770531846,0.176574497290615,0.176574497290615,0.29373633364867,NaN,NaN,NaN,NaN,NaN,NaN
1360000,20.0050084229295,101335.966861587,-7.28038626800317,-7.27473657906756,-0.0873089743169686,0.0224761683030027,19.6141593257585,0.00997606105327611,-0.0162640858366248,-0.000582386511980745,0.331029047568021,-0.126265973958474,19.9507820287391,-0.000158336084725039,-0.000202473233254618,9.7999999966293,9.81416026527126,0.0749895801063398,6.35833337480774,0.121570019964857,0.184587144826361,0.184587144826361,0.302918293072677,NaN,NaN,NaN,NaN,NaN,NaN
1380000,19.9744279424926,101330.928181459,-7.7775837436643,-7.7719340547287,0.14316768422735,-0.128824455223321,19.3818440780115,0.00881262572631038,-0.0155332509584354,0.00209985740399796,-0.177742798020314,0.189799479091962,19.6203545999007,-0.000158336084725039,-0.000202473233254618,9.7999999966293,9.58184441980362,0.205741872517884,6.71689586634666,0.129117116143615,0.192816487015288,0.192816487015288,0.312682873829215,NaN,NaN,NaN,NaN,NaN,NaN
1400000,19.9793049306747,101319.296957113,-7.50719362505418,-7.50154393611858,-0.0762654493463335,0.00491563822835333,19.4044803702417,0.00698622649042867,0.0173655459262341,0.0287668856782125,-0.357711498682694,0.0153408549766697,19.701299145405,-0.000158336084725039,-0.000202473233254618,9.7999999966293,9.60448149420909,0.343651347551404,7.07405163700535,0.136998055764474,0.201283062579438,0.201283062579438,0.323196584180173,-0.453705560108067,1.65613738516353,-8.32742059324765,2.11277148000301,-0.777045949512346,-5.12240414811084
1420000,19.9447103141724,101331.437786278,-7.59376108458478,-7.58811139564918,0.0667918695106908,0.0673730240461121,19.5241316575226,0.021894315085184,-0.0180357313150496,0.0144826379408112,0.402387447306815,-0.279977391964006,19.9824068313577,-0.000158336084725039,-0.000202473233254618,9.7999999966293,9.72412917970557,0.48870833201404,7.43164680925842,0.145222829318508,0.210012908523309,0.210012908523309,0.334655264392848,NaN,NaN,NaN,NaN,NaN,NaN
1440000,20.0310346852357,101332.821005656,-7.70476128160313,-7.69911159266753,0.0404742197112058,-0.231906246711401,19.420059725347,-0.00330582445066619,-0.0172189493395129,0.00331667080747716,0.13858092581935,-0.0192723768033829,19.3424255326525,-0.000158336084725039,-0.000202473233254618,9.7999999966293,9.62006385604279,0.640875833577971,7.78510334713462,0.153802607224539,0.219039151120849,0.219039151120849,0.347288132911761,NaN,NaN,NaN,NaN,NaN,NaN
1460000,20.0052951945047,101332.516542304,-7.69160951817024,-7.68595982923464,-0.0679725502541954,-0.02108089085799,19.7433168410576,0.0132799481675855,0.000259055999687638,-0.0174222610067185,-0.0020027011580829,-0.21092598223544,19.1021619479566,-0.000158336084725039,-0.000202473233254618,9.7999999966293,9.94331836802441,0.800155784822505,8.14289177731878,0.162750064025293,0.22840401438507,0.22840401438507,0.36135322655102,NaN,NaN,NaN,NaN,NaN,NaN
1480000,19.9916252465032,101306.896672255,-7.78833986395407,-7.78269017501847,0.0127976204483396,-0.0217509269469217,19.2173725559837,0.00765033222821043,0.017201262419161,0.0201093785227043,0.355472084766954,-0.134357401252662,19.6433136678206,-0.000158336084725039,-0.000202473233254618,9.7999999966293,9.41737279199177,0.966463712839347,8.48790102436536,0.172079731021535,0.238158352674069,0.238158352674069,0.377156675961011,NaN,NaN,NaN,NaN,NaN,NaN
1500000,19.9973353609798,101320.890516825,-7.82825749042728,-7.82260780149167,-0.139506542014519,-0.114991193765763,19.1287166764645,-0.00686270818546609,0.00075821190469766,0.0128462017885985,0.0956815097553408,0.0611100967874166,19.3062246640314,-0.000158336084725039,-0.000202473233254618,9.7999999966293,9.3287212996361,1.13963133839891,8.82886153159115,0.181808426799204,0.248365706644375,0.248365706644375,0.395010762958769,1.11581809461294,2.48245615587819,-6.34209489033284,1.89330866185316,-0.733529822788179,-3.95563516173899
1520000,20.0468721166006,101309.084219665,-7.78896029063593,-7.78331060170033,0.0526018168016573,0.134206011950325,19.3182949511594,0.0178810275311006,0.0033178720465605,0.00386629877524451,0.197547789305708,0.183217601211128,18.9202554841397,-0.000158336084725039,-0.000202473233254618,9.7999999966293,9.51829132187295,1.31963267042,9.17127167051716,0.191955714554506,0.259099986788346,0.259099986788346,0.415271896486226,NaN,NaN,NaN,NaN,NaN,NaN
1540000,19.9465668472635,101338.425462858,-7.77808038132389,-7.77243069238829,-0.0389599470855369,0.0590464282445575,19.2233588867318,0.021757188507673,-0.0173352586801498,-0.00529565497073074,0.277739768698771,-0.136120428498148,19.2944028993619,-0.000158336084725039,-0.000202473233254618,9.7999999966293,9.42335828965509,1.50643877330257,9.50933861774018,0.202544363220132,0.270447831932922,0.270447831932922,0.438348984476827,NaN,NaN,NaN,NaN,NaN,NaN
1560000,20.0044690967895,101327.869555861,-7.92803755842973,-7.92238786949413,0.0899468566885154,0.0367776166312958,19.1158668371328,0.0259020210002727,0.00340286291704727,-0.0190043798947443,-0.0905847516646935,0.119803525295119,19.3255295695977,-0.000158336084725039,-0.000202473233254618,9.7999999966293,9.31586461746446,1.69995966874454,9.84275092645659,0.213600899144732,0.28251058741623,0.28251058741623,0.464673608311419,NaN,NaN,NaN,NaN,NaN,NaN
1580000,20.0002686913104,101322.973328624,-7.8743417327682,-7.8686920438326,0.0283037098268566,0.0340389237904134,19.3630788577905,0.0163436070903736,0.0101363452647764,-0.0178803090706004,-0.303047333519614,0.16742370881137,19.1924912114777,-0.000158336084725039,-0.000202473233254618,9.7999999966293,9.56307769057252,1.90017266224288,10.1785484233777,0.225156201867433,0.29540473062369,0.29540473062369,0.494709989288494,NaN,NaN,NaN,NaN,NaN,NaN
1600000,20.0074291253444,101315.825056109,-8.64930572945167,-8.64365604051607,-0.0103222989688126,-0.0213668470707432,18.9856498122998,0.0252456424332,0.0111757411911851,0.00911424310048504,-0.109202822561224,0.32559426741044,19.0935136754528,-0.000158336084725039,-0.000202473233254618,9.7999999966293,9.18565041399492,2.10699945514143,10.5041308664767,0.237246149782089,0.309264085585352,0.309264085585352,0.528994084529825,0.0510784686755257,1.45525191956307,-9.53803867996088,2.114790318113,-0.922362693154375,-2.46917503380378
1620000,19.9430033628774,101319.39294007,-8.44930504098825,-8.44365535205264,0.189899737682982,0.0853951024604232,19.2302279032389,-0.0212692831791183,0.000942229069420858,0.0172427119090834,0.203259870550145,-0.232361453394531,18.9347428117827,-0.000158336084725039,-0.000202473233254618,9.7999999966293,9.4302230641549,2.32036010345458,10.8319339648384,0.249912307105002,0.32423898337007,0.32423898337007,0.568034646491228,NaN,NaN,NaN,NaN,NaN,NaN
1640000,20.038015736461,101319.836452778,-8.81933404421229,-8.81368435527669,0.0239939768502878,0.0445229154320829,19.0456154353207,-0.0120555245471798,-0.00230014862188327,0.00237932889175421,0.202475147462778,0.252790399526128,19.1263764227646,-0.000158336084725039,-0.000202473233254618,9.7999999966293,9.24561412123822,2.54021215232039,11.1532709217429,0.263202652942205,0.340500360530379,0.340500360530379,0.612445054549974,NaN,NaN,NaN,NaN,NaN,NaN
1660000,20.0200067591333,101331.255011697,-8.33643172805557,-8.33078203911996,0.331212495925854,0.135901132474101,19.0148617374274,-0.0176881515730947,-0.0214398818287868,0.0172668399957486,0.0900292294219848,-0.0889595861905188,19.3362386929914,-0.000158336084725039,-0.000202473233254618,9.7999999966293,9.21485357178205,2.76645676845392,11.4711906916099,0.277172376481505,0.358237694880129,0.358237694880129,0.662820743647258,NaN,NaN,NaN,NaN,NaN,NaN
1680000,20.0102034138342,101327.525309757,-7.96566223321887,-7.96001254428326,0.30534283582431,0.122669490773921,19.0965055787513,-0.0118527822113834,0.00306144802454338,-4.47790062467449e-05,0.189340795412039,0.0230815537445825,19.290621044821,-0.000158336084725039,-0.000202473233254618,9.7999999966293,9.29649810442003,2.99904758104321,11.7878905673199,0.291884668687518,0.377661852092887,0.377661852092887,0.71980807812359,NaN,NaN,NaN,NaN,NaN,NaN
1700000,20.0251849190922,101335.195339573,-8.64816628072674,-8.64251659179113,0.154553873271335,-0.0111634699906057,19.2027756942288,0.013213839451068,-0.00930475900397031,0.0111577263595085,-0.215159772407191,-0.516524954863483,19.2053666593126,-0.000158336084725039,-0.000202473233254618,9.7999999966293,9.40277342118002,3.2379644306865,12.1037943970086,0.307411618810259,0.399007155699396,0.399007155699396,0.784108409168961,-0.484682818205162,0.970427769535403,-6.7528461831736,2.17262705042686,-0.683108961635832,-1.6421011562626
1720000,20.0110910753882,101324.403923233,-8.27018588839676,-8.26453619946115,0.135014200878374,0.0625450574021894,19.0991245595904,0.016740683512872,0.0362756911341071,0.0219984487960568,0.307352215537087,-0.521238844299556,19.0853546190325,-0.000158336084725039,-0.000202473233254618,9.7999999966293,9.29912107941715,3.48314869175624,12.4146317099654,0.323835178143405,0.422532610439636,0.422532610439636,0.856468305510494,NaN,NaN,NaN,NaN,NaN,NaN
1740000,20.022564596096,101306.571089024,-8.70630297688229,-8.70065328794668,0.433146918320571,-0.042800187940598,19.201301358511,-0.00753453375018443,0.0401521172956448,-0.0138268392632381,0.340287156282451,0.219969417889218,19.1988332036827,-0.000158336084725039,-0.000202473233254618,9.7999999966293,9.40129523793792,3.73453990664446,12.7244897788569,0.341248097147446,0.44851910178943,0.44851910178943,0.937620710911329,NaN,NaN,NaN,NaN,NaN,NaN
1760000,19.9565659965167,101332.88455783,-8.29981982978437,-8.29417014084877,-0.0241022094308611,-0.0143887518123086,18.9260020954572,0.0311284806734545,0.029911556906482,-0.0102166275697764,-0.00124817432656263,-0.0287151808740488,19.1242605716566,-0.000158336084725039,-0.000202473233254618,9.7999999966293,9.12600277564015,3.99204232956518,13.0257525132148,0.359754924388355,0.4772760436526,0.4772760436526,1.02837739023207,NaN,NaN,NaN,NaN,NaN,NaN
1780000,20.0060449266371,101333.188621465,-8.64512591589899,-8.63947622696339,-0.0513852117045225,-0.0466026341361536,19.1449292565441,0.0223885858868087,0.0235099679028226,0.00402060518224113,0.124111288979452,-0.0924635957458544,18.9378030457681,-0.000158336084725039,-0.000202473233254618,9.7999999966293,9.34493104301222,4.25558302477756,13.3283170080232,0.37947295205115,0.50913079157729,0.50913079157729,1.12946780826374,NaN,NaN,NaN,NaN,NaN,NaN
1800000,20.0042311829484,101326.052550232,-8.75655409537663,-8.75090440644103,-0.0322045698628043,0.133049599134292,18.9652161915885,-0.00258483631478232,0.00951354918211226,-0.0136131883738016,-0.154917941428103,-0.227961787375767,19.2993576907452,-0.000158336084725039,-0.000202473233254618,9.7999999966293,9.1652139565106,4.52510744086141,13.6241246003618,0.40053328716616,0.544447567870454,0.544447567870454,1.24178854770419,1.35107358605189,0.510532333117083,-6.7043745915568,2.09102102007205,-0.658237968003114,-0.659961770175053
1820000,19.9968691708914,101329.816444075,-8.63697060719177,-8.63132091825617,0.191730529348457,0.100339028982093,19.1600515540585,-0.0291608598051111,0.0151013350312702,-0.0103499163662882,0.168732998366102,0.105155908314709,19.118366008482,-0.000158336084725039,-0.000202473233254618,9.7999999966293,9.36004637666957,4.80055535390801,13.9206667042981,0.423081966171614,0.583608090774435,0.583608090774435,1.36613022214701,NaN,NaN,NaN,NaN,NaN,NaN
1840000,20.0109471947122,101324.945485462,-8.79513351839245,-8.78948382945684,-0.0502352747320787,0.132218681124405,19.0893968205255,-0.0279186623369766,-0.00963605493211228,-0.00250094398524175,0.128813858702654,-0.0835509466450603,19.1688282295034,-0.000158336084725039,-0.000202473233254618,9.7999999966293,9.28939489388963,5.0818875821635,14.2125561212509,0.447281056183798,0.627032943454426,0.627032943454426,1.50343694607592,NaN,NaN,NaN,NaN,NaN,NaN
1860000,20.0595465254218,101325.704365364,-8.81236108893659,-8.80671140000099,0.12828289517234,0.13532151072898,19.3218793274887,-0.0211447931158325,0.0122357244282757,0.0180894876699648,-0.132341432998705,-0.040640100078152,19.2322895972399,-0.000158336084725039,-0.000202473233254618,9.7999999966293,9.52187445239445,5.36907152517212,14.5058381796113,0.473309867313245,0.675163292217255,0.675163292217255,1.6545727859429,NaN,NaN,NaN,NaN,NaN,NaN
1880000,20.0655980353995,101324.080212597,-8.86493562804048,-8.85928593910488,0.357020500454969,0.057057617630844,19.0088818210664,-0.0213923760910984,0.00282383331039799,-0.00693430485391923,0.0807752423382957,-0.033511581706998,18.8758164345522,-0.000158336084725039,-0.000202473233254618,9.7999999966293,9.2088748673989,5.66202510386189,14.789519689365,0.501366185956241,0.728482550427691,0.728482550427691,1.82055488497563,NaN,NaN,NaN,NaN,NaN,NaN
1900000,19.9975679878715,101314.107318976,-8.47029683485421,-8.46464714591861,0.242396940868524,0.211388039329635,18.9139672062148,0.00162828324807881,0.00337591763741753,0.00745844000665238,0.0469408214551759,0.0191711557419931,18.8497961036916,-0.000158336084725039,-0.000202473233254618,9.7999999966293,9.11395891597448,5.96060036835283,15.0680067597294,0.531667241576979,0.787478217924468,0.787478217924468,2.00215234802126,1.77451234280924,0.96487320287663,-8.39395448347955,1.6717514417067,-1.10086627512717,0.428089099417965
1920000,19.9750874079509,101318.705831305,-8.63751664764794,-8.63186695871234,0.105868111607951,0.0370274953690025,18.8063956266565,-0.00759484237551405,0.0121291332161083,0.00245902978980281,0.128301587695936,-0.102054433412987,19.1583143485921,-0.000158336084725039,-0.000202473233254618,9.7999999966293,9.00639314469632,6.26469088250654,15.3410446556418,0.564450434215457,0.852671760617318,0.852671760617318,2.20022167159651,NaN,NaN,NaN,NaN,NaN,NaN
1940000,20.0269875374157,101306.305276201,-8.71491986467998,-8.70927017574438,-0.0232927225926562,-0.00431444485025814,19.1513130518544,-0.00427671370533471,-0.00321327296594795,0.0208631191829838,0.148757585534907,-0.0249279892220416,18.937624698091,-0.000158336084725039,-0.000202473233254618,9.7999999966293,9.35131351074056,6.57427820809853,15.6176879035577,0.599974512482333,0.924609043813716,0.924609043813716,2.41559988904705,NaN,NaN,NaN,NaN,NaN,NaN
1960000,20.0197329643063,101328.262573621,-8.56657451703106,-8.56092482809546,0.170561759089706,-0.0857370428324663,19.0427806488503,0.0252187039873538,-0.00170196394256363,-0.00982250989834556,-0.0902485590977161,0.167228471800623,19.0251734314256,-0.000158336084725039,-0.000202473233254618,9.7999999966293,9.24277965795103,6.88934272337027,15.888763623616,0.63852122345691,1.00389553551376,1.00389553551376,2.64940600876493,NaN,NaN,NaN,NaN,NaN,NaN
1980000,19.9488315619738,101320.091054867,-8.52351093489804,-8.51786124596243,0.118677049403816,0.132442976569305,19.1125076340721,0.00738799236680509,0.0196976642164289,-0.00104304837515718,0.146090942134665,0.0748676984115221,19.1808369201505,-0.000158336084725039,-0.000202473233254618,9.7999999966293,9.31250297372116,7.20980882395169,16.1578464345255,0.680396566855272,1.09113704230464,1.09113704230464,2.90248758882603,NaN,NaN,NaN,NaN,NaN,NaN
2000000,20.0316303134018,101325.262080035,-8.91333946539338,-8.90768977645778,-0.107636753456004,0.183435885137881,18.9423996835177,0.00342278107609712,-0.00940112678333777,0.00575222811764696,0.186658543000911,-0.0536279027707946,19.2839640462954,-0.000158336084725039,-0.000202473233254618,9.7999999966293,9.14239762617849,7.53558835848712,16.4201070190177,0.725931576246122,1.18698000154366,1.18698000154366,3.17580244998591,0.804474578176558,1.87110535556128,-8.72729439776734,1.70416220983095,-0.495734175770043,1.17464500645468
2020000,20.0268800817704,101330.632865755,-0.0768874740245132,-0.0712377850889092,-0.0831564920965227,0.0285468491020653,18.9825670890821,-0.0337506997282492,0.000342047584273428,-0.00622561780540152,0.0126148304318204,0.276976475514689,19.0262654224594,-0.000158336084725039,-0.000202473233254618,9.7999999966293,9.18256783629806,7.86658725199433,16.6797823317035,0.775483253743224,1.29207543786234,1.29207543786234,3.47011536016753,NaN,NaN,NaN,NaN,NaN,NaN
2040000,20.0010527247338,101317.817544054,-0.216329815702586,-0.210680126766982,0.115050892047302,-0.201335337958956,18.8782616604455,-0.00860582002801098,0.0203139466762787,-0.0225250483283431,0.482610984436936,-0.0720505105313305,19.23205573293,-0.000158336084725039,-0.000202473233254618,9.7999999966293,9.07826395480025,8.20272470070982,16.9339625398455,0.829435491076911,1.40711749363151,1.40711749363151,3.78632832207401,NaN,NaN,NaN,NaN,NaN,NaN
2060000,20.009173448496,101322.116197353,-0.0573497258048819,-0.051700036869278,0.155193549279567,0.106019020412957,19.1424616350445,-0.00472198810961199,0.00271233313424987,-0.0091876077869469,-0.0807618734113895,-0.272289689287506,19.136727076755,-0.000158336084725039,-0.000202473233254618,9.7999999966293,9.34245693062853,8.54396470528222,17.1900379173939,0.888200134413122,1.53280903397973,1.53280903397973,4.12520048221095,NaN,NaN,NaN,NaN,NaN,NaN
2080000,19.9914136845971,101328.174682451,0.247608242794418,0.253257931730022,0.102943762408134,-0.214675529498714,19.0241087518744,-0.0308317217313801,-8.64504078074309e-06,-0.0288717915885007,-0.0381865832658245,0.368018865306297,19.1270899531882,-0.000158336084725039,-0.000202473233254618,9.7999999966293,9.22411151740619,8.89026789052339,17.4402806067233,0.95221850061049,1.66992231470608,1.66992231470608,4.4878082456953,NaN,NaN,NaN,NaN,NaN,NaN
2100000,19.9454155362387,101311.694981478,-0.164420612197966,-0.158770923262362,0.304861374323978,0.122448551777679,19.1774831280528,-0.0215668719946021,-0.0106490130675208,0.0105869519481509,-0.0914474042289007,0.0969163671028245,18.7600415083157,-0.000158336084725039,-0.000202473233254618,9.7999999966293,9.37747566603728,9.24157223146463,17.6901534874004,1.02196242711131,1.81920927213545,1.81920927213545,4.87486060576064,0.894010619632182,0.779621106796027,1.48629254666689,2.32395768213916,-0.86563326119768,1.86168782438595
2120000,19.989044604326,101311.611920458,0.15677850654468,0.162428195480284,0.0460152076997326,0.293653104856783,18.8828687679393,-0.00268418399437458,-0.00688733249953247,-0.0132156702953122,0.109824354455695,0.0405847029727598,18.8582115519892,-0.000158336084725039,-0.000202473233254618,9.7999999966293,9.08286195095869,9.59778029151762,17.9306525178987,1.09793500291959,1.98148177445787,1.98148177445787,5.28731184162013,NaN,NaN,NaN,NaN,NaN,NaN
2140000,20.0373780292358,101316.348126054,0.286316905146592,0.291966594082196,0.0389726775512113,0.0230827769561373,19.0144303089127,-0.013775671218584,0.0139991765282625,-0.0121452029069563,-0.0706119920770771,-0.0997248393470531,18.8759837749578,-0.000158336084725039,-0.000202473233254618,9.7999999966293,9.21442919579863,9.9587906682175,18.1703851520896,1.18067088107271,2.15750359077281,2.15750359077281,5.72560335659299,NaN,NaN,NaN,NaN,NaN,NaN
2160000,19.9472412054033,101309.066723118,-0.105895175235364,-0.10024548629976,0.0120650496249166,-0.0720941418338014,18.99321975525,-0.00879316228798185,-0.00163654463286528,0.00618361867256294,-0.0705291887117733,-0.291482223090907,18.5661396342343,-0.000158336084725039,-0.000202473233254618,9.7999999966293,9.19322104328882,10.3245571302181,18.4062610479752,1.27073687539321,2.34812110496808,2.34812110496808,6.19059929980296,NaN,NaN,NaN,NaN,NaN,NaN
2180000,19.9901546499636,101333.758009363,0.30521507396813,0.310864762903734,-0.0958759454653829,0.106484640976904,18.8830876196711,-0.0130149359557734,-0.00259269031719731,-0.00938222483654867,0.0940074474792168,0.0908060596245595,18.8104364262177,-0.000158336084725039,-0.000202473233254618,9.7999999966293,9.08308696218976,10.6949848648438,18.636512414595,1.36873357741402,2.55417580536533,2.55417580536533,6.68296115839349,NaN,NaN,NaN,NaN,NaN,NaN
2200000,19.9893444973173,101326.885713942,0.0764290163881265,0.0820787053237305,-0.0130432535881719,0.175283492256109,10.0640884115246,-0.0323222069626509,-0.0343499243502936,0.00121694416542807,0.0695463536418605,-0.216576880608911,9.82060663259599,-0.000415810307458437,0.00330546438687163,9.79999943372483,0.264147505179459,11.0682200107069,18.6870021717056,1.47529517671016,2.77650530295714,2.77650530295714,7.20318986141088,1.32424975661004,0.27404472345208,0.306152476740158,1.46859804742389,-1.03223929793675,2.42517713770265
2220000,20.0028517404871,101322.129384472,0.638751834529472,0.644401523465076,0.0601526830844416,0.0440252009408993,9.85168041771737,-0.0102992243082025,-0.033675131752283,-0.0278741531380855,-0.0283860305548294,0.0196564934367136,9.66848503129308,0.000795475633513176,0.00411942449698481,9.7999991019163,0.0517029035185299,11.4424149886894,18.7324956265514,1.59105045366798,3.01394078644152,3.01394078644152,7.73963816299991,NaN,NaN,NaN,NaN,NaN,NaN
2240000,20.0635533792855,101328.55092495,0.422662592854806,0.42831228179041,0.0278271330175119,0.204280312855001,9.56080531458031,-0.0412751369095351,0.0173995608772146,0.015686218430897,-0.0413085838002508,0.0566567615287154,9.7212286428596,0.0013367609725317,0.00812660714859567,9.79999653935277,-0.239024867307268,11.8174549384065,18.7714993451581,1.71661130953159,3.26686114626491,3.26686114626491,8.29146606812645,NaN,NaN,NaN,NaN,NaN,NaN
2260000,19.9832448801395,101324.304730356,0.745886863491303,0.751536552426907,0.0779773314950008,-0.131122510019203,9.24201357327431,-0.0141016723889574,-0.0138817168302948,0.0233122369370131,0.0469081958630808,-0.208934937837603,8.90406402869045,0.00287284427175439,0.00534771533020263,9.79999811983179,-0.558036892610081,12.1932053583706,18.8035426512509,1.85260378748724,3.5355938783111,3.5355938783111,8.85769142685623,NaN,NaN,NaN,NaN,NaN,NaN
2280000,19.9827343838245,101311.696466973,0.551943430255531,0.557593119191135,-0.0281064624675468,0.0196394083708966,8.78268394062793,0.0337911183369812,0.00033110280606685,0.0234623184798026,-0.254135227585608,0.272770644001806,9.03482257572948,0.00225794597416993,0.00564526962421552,9.79999811390853,-1.01731291223569,12.5695000138497,18.8259228966624,1.99966614508933,3.82042181961895,3.82042181961895,9.43725499195907,NaN,NaN,NaN,NaN,NaN,NaN
2300000,20.0334758313985,101333.450446553,0.284691465503782,0.290341154439386,0.0507369344441579,0.0943457811601215,8.60567529611072,-0.00162723813547914,-0.0101218586307882,0.000354145688930165,-0.1430843800395,0.161392727726072,8.77752982592218,0.00323541123122256,0.00743740663201848,9.79999664372885,-1.19423929982741,12.9462035488084,18.8444305992078,2.15844638465502,4.1215481126604,4.1215481126604,10.0288457909459,1.06493760647111,-0.552516489088327,0.230480212848947,2.1251283828838,-0.921055074471498,2.44747010834567
2320000,19.9910981831893,101318.312453158,0.663969715688193,0.669619404623796,0.0192057172002355,0.0830217407320645,8.58645520194375,0.0142883574607272,0.00125525012727227,0.00765480828679149,0.239695928424244,0.237058763654812,7.94198334679592,0.00356364261794448,0.00897131052890619,9.79999524571511,-1.21346597829352,13.3232706272895,18.862277248895,2.32960129420156,4.43921093192614,4.43921093192614,10.6315592428626,NaN,NaN,NaN,NaN,NaN,NaN
2340000,19.9872339898152,101321.020578295,0.86849190059934,0.874141589534944,0.0157486574815429,-0.216978392356508,7.95687148008282,-0.00959263786615343,0.0235423090630043,-0.0152987920877378,-0.479579024170305,-0.247910724779581,8.31405312202352,0.0038217193937233,0.00446912836166306,9.79999823578314,-1.8432227602217,13.7005660184081,18.8672618629645,2.51379752833606,4.77366670172582,4.77366670172582,11.2447446282253,NaN,NaN,NaN,NaN,NaN,NaN
2360000,19.9880178215873,101324.603580037,0.977221585140978,0.982871274076582,0.0518241344369332,0.145596776096153,8.01368862642,-0.00925343426324031,-0.00378326939204706,-0.0357471886769174,0.151110361820827,-0.0961502914679499,7.98368745544852,0.00479926250640289,0.00731835902229657,9.79999609227987,-1.78618046216644,14.0779717643579,18.8733127320237,2.71170766087278,5.1249499160816,5.1249499160816,11.8667428225372,NaN,NaN,NaN,NaN,NaN,NaN
2380000,19.9714319862352,101308.43286207,0.52798702701152,0.533636715947124,-0.156958330084551,0.0377960164503965,7.74638912688116,-0.0109461854372599,-0.0128089071176176,-0.0197888247894635,0.0764641333322719,-0.0125883621713506,7.67235891934949,0.00157069357584208,0.00796127862188961,9.79999664035475,-2.05360798066399,14.4554441364538,18.8739244775596,2.92400902225883,5.49326955281075,5.49326955281075,12.4970227405361,NaN,NaN,NaN,NaN,NaN,NaN
2400000,19.9622574922915,101308.203855371,0.598010023110905,0.603659712046509,-0.039880437029466,-0.0277334301687396,7.4793573067522,-0.00995786754704226,-0.00205458159497824,0.00984334211442672,-0.131965619551018,-0.218544416760625,7.66265784426937,0.000745200279827806,0.00728187185599371,9.79999726627609,-2.3206684194412,14.8328752397866,18.8691858557177,3.15138472025233,5.87870280583883,5.87870280583883,13.1345145353995,0.994754667114994,-0.149607929116515,2.90235113684923,1.4704997970015,-0.747908042768233,2.09384459730333
2420000,19.9943843520831,101306.925327221,0.891921699884608,0.897571388820212,-0.146348958443899,-0.219568156251135,7.44394128324698,-0.0186763661404778,0.0101725531083071,0.00429299011786387,-0.147862711446275,0.414255463120452,7.14721379518879,-0.00220729666257116,0.00275813375743491,9.79999936329282,-2.35608803332314,15.2102051961136,18.8638097769885,3.39452021103654,6.28128989061404,6.28128989061404,13.778145983929,NaN,NaN,NaN,NaN,NaN,NaN
2440000,19.9917194581532,101314.027056895,0.846408930039439,0.852058618975043,-0.106102683675579,0.18314613253054,6.89413812762121,0.00824016493748887,-0.00980277844174101,0.00716596797517143,0.0110323001992723,-0.242798866209021,7.09598099011477,-0.00431076762390822,0.00640386922567365,9.79999695957817,-2.90569766148007,15.5873185135036,18.8475219620098,3.65410359667474,6.70112498781059,6.70112498781059,14.4272652868488,NaN,NaN,NaN,NaN,NaN,NaN
2460000,20.024074234177,101320.729590653,1.27814918314747,1.28379887208307,-0.0577272577369154,-0.166301788535182,6.66767141379815,0.00912099974747813,0.0110062060152194,-0.023301931098942,0.22382473820827,-0.0282548185733911,6.61898864372829,-0.00431076762390822,0.00640386922567365,9.79999695957817,-3.13241393300244,15.9640631675116,18.8269434387862,3.9308222538044,7.13807301640806,7.13807301640806,15.0802948339856,NaN,NaN,NaN,NaN,NaN,NaN
2480000,19.9762993019277,101305.978117177,1.30777032596118,1.31342001489679,-0.00856747030651533,-0.0969859519724868,6.33332635192876,0.00216310129946744,-0.0028765034289754,0.00214663266024374,0.379006909405195,-0.171935177522258,6.70393699730214,-0.00431076762390822,0.00640386922567365,9.79999695957817,-3.46673522041443,16.3403324617226,18.7999859823149,4.2253597062271,7.59207936107014,7.59207936107014,15.7362461025662,NaN,NaN,NaN,NaN,NaN,NaN
2500000,19.9989968674749,101313.105140582,0.917138704286593,0.922788393222197,0.0732831199013831,-0.0817298730394512,6.18013978911584,0.00106901836874676,0.0162527665124644,0.0126267685174715,0.176615518331815,0.0787228351788512,6.18923374799928,-0.00431076762390822,0.00640386922567365,9.79999695957817,-3.61994777049144,16.7160359873023,18.7703665756606,4.53839572023352,8.06300980726502,8.06300980726502,16.3939397053687,-0.344503730341979,2.02183693545146,0.599239739070547,1.43532521662164,-1.11023359257773,2.04884382220351
2520000,20.0014474975665,101310.380484055,0.933589681265839,0.939239370201443,-0.0135811089121576,0.173387157349693,5.92589321164553,0.029729295993807,-0.00296717889984357,0.00264689607906587,-0.259185396941835,-0.271008744878763,6.05479758638905,-0.00431076762390822,0.00640386922567365,9.79999695957817,-3.87398935197992,17.0911007300518,18.7361076992857,4.87060551782752,8.55077314187906,8.55077314187906,17.0525535942364,NaN,NaN,NaN,NaN,NaN,NaN
2540000,19.9629310998646,101303.493138312,1.22055867561666,1.22620836455227,0.139751699276084,0.0363992421333721,5.59362626772462,-0.0144376117762837,-0.0205700837190449,0.0145568624546819,0.0585902509638783,-0.0670209180502908,5.58509248635014,-0.00431076762390822,0.00640386922567365,9.79999695957817,-4.20641315555064,17.4654189067848,18.6957099740174,5.22265923212746,9.05520526354772,9.05520526354772,17.7110916801338,NaN,NaN,NaN,NaN,NaN,NaN
2560000,20.0080506304419,101304.65463908,0.941063453603628,0.946713142539231,-0.0455268007981359,0.0167838930467816,5.60849054768202,-0.0068868804266565,-0.0200852903822656,-0.0193546943933973,-0.0679011622884153,-0.148354224048733,5.58633772934434,-0.00431076762390822,0.00640386922567365,9.79999695957817,-4.19148019873247,17.8389381131148,18.6562106589851,5.5952190460258,9.57607208407721,9.57607208407721,18.3684222217898,NaN,NaN,NaN,NaN,NaN,NaN
2580000,19.9329419634645,101308.329783129,1.45066638700021,1.45631607593581,-0.000650134841778394,-0.107871766809485,5.58210734172963,-0.00252499994242795,-0.0201788477965893,0.0188148578043395,-0.0457983790695554,0.213881307207739,5.37172774079044,-0.00431076762390822,0.00640386922567365,9.79999695957817,-4.21796459358348,18.21166788788,18.6167668175326,5.98894046675895,10.113277442942,10.113277442942,19.0241202941434,NaN,NaN,NaN,NaN,NaN,NaN
2600000,20.0329223806687,101317.430037329,1.1262280579693,1.13187774690491,-0.29737084801458,0.04255522569587,4.78491205985328,0.0258848667903817,0.0161252266813034,0.00843762574788271,-0.212103059339936,-0.160095967225931,4.99012830294495,-0.00431076762390822,0.00640386922567365,9.79999695957817,-5.01493081090457,18.5834552236193,18.5619667563989,6.40447452374874,10.6666933503119,10.6666933503119,19.6777090470097,0.712560723797627,2.17711525247984,0.0190702416166126,1.60477106247491,-0.850165002077652,1.38352549237189
2620000,19.9575854895947,101307.503672214,1.35782395668259,1.36347364561819,-0.0518015262502046,-0.00229620800258757,4.7023976005195,0.025474938264067,0.00434377001869267,-0.00562202911190612,-0.141020252387732,0.113377749051541,4.81522681211554,-0.00431076762390822,0.00640386922567365,9.79999695957817,-5.09758257269946,18.9541381084813,18.506321729799,6.84245880144899,11.2357679086978,11.2357679086978,20.3271838464222,NaN,NaN,NaN,NaN,NaN,NaN
2640000,19.9799089713485,101310.630965012,0.901909411349815,0.907559100285418,-0.0466913367419647,0.212030005909433,4.60505127828861,-0.00681399681290357,0.000154353290384325,-0.00619868352107103,0.119982494822085,0.177629708553715,4.49168423028698,-0.00431076762390822,0.00640386922567365,9.79999695957817,-5.19479105980996,19.3236968320333,18.4495506253959,7.3035151744693,11.8202748516401,11.8202748516401,20.9720057108754,NaN,NaN,NaN,NaN,NaN,NaN
2660000,19.9520719395895,101314.313528075,1.30563287342049,1.31128256235609,-0.308973483520383,0.123496515249738,4.16071951458396,0.0414367240882175,-0.0164313599531602,0.00721565119184111,-0.0268011875745067,-0.168330984426636,4.42175807414886,-0.00431076762390822,0.00640386922567365,9.79999695957817,-5.63906516724457,19.6920395998386,18.3847261551377,7.78825601618795,12.4199653846926,12.4199653846926,21.6116357908939,NaN,NaN,NaN,NaN,NaN,NaN
2680000,20.0205903886128,101308.17652799,1.2560749954553,1.26172468439091,-0.119614030441932,-0.180484374098926,3.90788793067431,0.0286784036338635,-0.0141105023777023,0.0208270159310796,-0.14207724829329,0.0809809112059061,4.03281629090702,-0.00431076762390822,0.00640386922567365,9.79999695957817,-5.89217860521007,20.0590447258645,18.3157864474537,8.2972795059038,13.0343751741324,13.0343751741324,22.2448503973763,NaN,NaN,NaN,NaN,NaN,NaN
2700000,19.998464370613,101317.740406682,1.33385658901924,1.33950627795485,-0.100703911410517,-0.0168895337046213,3.6120111051295,-0.00305839440344654,0.00491028938671177,-0.000660132731755997,-0.0739177832131254,-0.215779356630397,3.94371989106121,-0.00431076762390822,0.00640386922567365,9.79999695957817,-6.1879567549972,20.4246219370471,18.2419346708025,8.83116673099479,13.6631160753374,13.6631160753374,22.8708493814738,2.29420111880222,3.34369843368441,3.28692260026957,1.67602436548572,-1.15308697176251,0.662927168827717
2720000,19.9560715448849,101317.261401929,1.17701290803132,1.18266259696692,0.149230403875938,-0.162626176517291,3.54950229680365,0.00454011528381153,-0.00570005437255111,-0.0114285226468827,0.197053372375814,0.173979384963516,3.72738015311488,-0.00431076762390822,0.00640386922567365,9.79999695957817,-6.25067071608868,20.7887202780258,18.1678994270733,9.39048228470289,14.3057512378099,14.3057512378099,23.4887749298923,NaN,NaN,NaN,NaN,NaN,NaN
2740000,20.0125430193103,101301.388575039,1.55951181138147,1.56516150031708,-0.0699241416460421,-0.0559424503479205,3.171495567201,0.00477446775406357,-0.0202740000470177,0.00793563496266367,0.131374453633594,-0.0511259865590396,3.25064628269677,-0.00431076762390822,0.00640386922567365,9.79999695957817,-6.62851121484947,21.1512730373283,18.0873765031698,9.97577565386549,14.9619647736509,14.9619647736509,24.0982855961302,NaN,NaN,NaN,NaN,NaN,NaN
2760000,19.953730086071,101308.752813544,1.56253965176402,1.56818934069963,-0.0107420945756861,-0.132761488476619,3.19414776010565,0.0353869199348103,0.00548037953556402,0.0101826623441245,-0.192100708380977,-0.153453241883897,2.8555582292703,-0.00431076762390822,0.00640386922567365,9.79999695957817,-6.60593525949573,21.512231432155,18.0084629795023,10.5875795860321,15.6312324693785,15.6312324693785,24.6984125360699,NaN,NaN,NaN,NaN,NaN,NaN
2780000,20.0217661549594,101305.919470385,1.172804216447,1.1784539053826,-0.105163208743469,-0.112001124475473,2.75182134632434,0.00666091493001295,-0.0541840880079339,0.000501104584490637,-0.0437462743413366,-0.0903878636083863,2.76994602489405,-0.00431076762390822,0.00640386922567365,9.79999695957817,-7.04820643664469,21.8715343997588,17.9218337808805,11.2264104451698,16.3132637076306,16.3132637076306,25.2890565610875,NaN,NaN,NaN,NaN,NaN,NaN
2800000,19.9649481221456,101295.195970207,1.20634519294873,1.21199488188434,0.0486001641286406,-0.117513736087547,2.53754611141222,0.0194751574234382,-0.0109824842966462,0.000180825372971298,-0.155021299257689,-0.36794147225372,2.5966179694107,-0.00431076762390822,0.00640386922567365,9.79999695957817,-7.26255284387582,22.2290742593143,17.8321521746701,11.8927668860737,17.0074589226415,17.0074589226415,25.8691735761323,2.43821780625086,1.2772484965443,0.566902666071093,2.18892179999788,-1.02192036193432,0.224043469596749
2820000,19.9584464223907,101300.227496147,1.13284340609764,1.13849309503324,-0.0616930727406738,0.00811055962693259,2.27155297287982,-0.000311618750996806,-0.0040334436623871,-0.00514186059421143,0.417418496591036,0.452741867396987,2.10369228095117,-0.00431076762390822,0.00640386922567365,9.79999695957817,-7.52841529477482,22.5847800317356,17.7384250674552,12.5871260491066,17.7133445290887,17.7133445290887,26.4382335931621,NaN,NaN,NaN,NaN,NaN,NaN
2840000,19.9542263193335,101314.140530697,1.42371705403169,1.42936674296729,-0.0957593040605814,-0.129179752577994,2.03547373287988,0.0183467511240119,-0.0178031318912864,0.00957839659503803,0.0865012436714261,-0.369804641522907,2.07943879892991,-0.00431076762390822,0.00640386922567365,9.79999695957817,-7.76456918985821,22.9385772542138,17.6412971803686,13.3099451738758,18.4303986968961,18.4303986968961,26.9956310976017,NaN,NaN,NaN,NaN,NaN,NaN
2860000,19.9873490999166,101308.719794918,1.40376494579451,1.40941463473011,0.0373842232494543,0.060360384132662,1.88843923269057,0.00546641919484058,0.0312393307993145,-0.00882801094614437,0.070586633081818,-0.0388785360824867,1.87977344591482,-0.00431076762390822,0.00640386922567365,9.79999695957817,-7.91153835469155,23.2904161543557,17.5425928338155,14.061660744237,19.1581059474309,19.1581059474309,27.5408563515045,NaN,NaN,NaN,NaN,NaN,NaN
2880000,19.9977950251094,101305.081907533,1.38746555426453,1.39311524320014,-0.23781670638852,-0.115467887814815,1.65007342910127,0.0130534275518127,-0.0105799235547789,0.0218719305217103,0.15383837643565,-0.111184157165596,1.46940736174042,-0.00431076762390822,0.00640386922567365,9.79999695957817,-8.14989792657366,23.6402470694389,17.4404986745062,14.8426896499495,19.8960031426566,19.8960031426566,28.0736172442454,NaN,NaN,NaN,NaN,NaN,NaN
2900000,19.9604349860597,101304.346371558,1.22507033721997,1.23072002615558,-0.0240881811050397,-0.190614810679436,1.36275193630411,0.0253098404570521,-0.0326453655420545,-0.0024439865571862,0.0154497004177171,0.297700994399185,1.38123884220855,-0.00431076762390822,0.00640386922567365,9.79999695957817,-8.43736244911524,23.9879927739444,17.3340717760497,15.6534288396463,20.6435555569624,20.6435555569624,28.5934601993223,1.47753771179055,2.18981540580886,-1.22782819723941,1.45786925669996,-1.08079298126426,-0.278504350898332
2920000,20.0235051155136,101320.668821725,1.25338458827772,1.25903427721332,-0.20364052173607,0.0099813208501691,1.06446490892761,0.0151722443092432,-0.012195099112996,-0.00232879881003591,0.246102783534058,-0.185585434994279,0.8702074320863,-0.00431076762390822,0.00640386922567365,9.79999695957817,-8.73543932274391,24.3335650037659,17.2231512060992,16.4942529686464,21.4001829049852,21.4001829049852,29.099862588526,NaN,NaN,NaN,NaN,NaN,NaN
2940000,19.9870024362546,101301.391000431,1.33737053221414,1.34302022114974,-0.0507768238921352,-0.115609184816221,0.916122372387698,0.0192119183238767,0.0262713872240742,1.59992375610724e-05,0.0910442156585366,-0.0689328574537199,0.484326047053766,-0.00431076762390822,0.00640386922567365,9.79999695957817,-8.88393112193994,24.6769043266485,17.1107810821613,17.3655131066363,22.1652862575117,22.1652862575117,29.5923151890295,NaN,NaN,NaN,NaN,NaN,NaN
2960000,19.9939288427823,101300.429980567,1.29241646883198,1.29806615776759,0.00793817026932353,-0.0997397433853983,0.618642654526346,-0.0301662166296077,-0.00521204916583219,0.0271752866254889,-0.0693230440129568,-0.0982563885920897,0.822305093649897,-0.00431076762390822,0.00640386922567365,9.79999695957817,-9.18142620474052,25.0179520500159,16.9939912545705,18.2675384067596,22.938370422053,22.938370422053,30.0706498683478,NaN,NaN,NaN,NaN,NaN,NaN
2980000,19.9863888704812,101309.510920567,1.49314427977498,1.49879396871058,0.175330324907423,0.0033488563311929,0.485344068362584,0.0216169655620377,0.00452384991697177,0.0200121872128034,-0.204195202565481,-0.0154425968574422,0.0327932298652296,-0.00431076762390822,0.00640386922567365,9.79999695957817,-9.31473101717831,25.3566531135519,16.8761150990379,19.2006359318926,23.7188246924205,23.7188246924205,30.5344214336705,NaN,NaN,NaN,NaN,NaN,NaN
3000000,19.9827908217843,101322.77134015,0.992481823028936,0.99813151196454,0.0949204034239979,-0.1071219901051,-0.151169326488742,-0.0128199686899789,-0.0169817923644092,-0.00330803857137678,0.13034923305253,-0.432174082829862,0.00102380436775604,-0.00431076762390822,0.00640386922567365,9.79999695957817,-9.95128103214173,25.6928851788898,16.7470914347488,20.1650906896333,24.5061588422518,24.5061588422518,30.9835509611219,1.45610227019077,2.35083341014218,2.00940776443827,1.93625493124012,-1.3751691593198,-1.16274321156396
3020000,19.9995258412361,101303.450841539,1.3550792160252,1.3607289049608,0.0866644936689894,-0.187502779107184,-0.0892734722760774,0.0023633649316507,-0.00370968630931023,0.00197167432302235,0.434725088820697,-0.312165017601802,0.385082275688937,-0.00431076762390822,0.00640386922567365,9.79999695957817,-9.88943409088233,26.0265663464017,16.6210253164407,21.1611602916424,25.2994883822007,25.2994883822007,31.4169757597549,NaN,NaN,NaN,NaN,NaN,NaN
3040000,19.9764122692119,101312.839181069,1.11801208425971,1.12366177319531,0.0595059164269774,-0.119895289607037,-0.0655460606432018,0.00804343345681754,0.0126934607463824,-0.00356022290754786,0.038965620216326,-0.278409107271368,0.0294933369734776,-0.00431076762390822,0.00640386922567365,9.79999695957817,-9.8656505617295,26.3577476323731,16.4971032807042,22.1890775343988,26.0984642886028,26.0984642886028,31.8350823569516,NaN,NaN,NaN,NaN,NaN,NaN
3060000,19.9687271225604,101316.887596043,1.09175771297636,1.09740740191197,0.211915745702848,0.26502063467891,0.154775170466014,-0.000554612413141272,0.00776846643290448,-0.00961934758694377,0.208786582378742,0.00310314280432922,0.234123647091416,-0.00431076762390822,0.00640386922567365,9.79999695957817,-9.64514491449631,26.6865108562536,16.3792191073429,23.2490608973049,26.9027193740083,26.9027193740083,32.2381858178664,NaN,NaN,NaN,NaN,NaN,NaN
3080000,20.0078469160021,101307.374534075,1.26120324643744,1.26685293537305,0.0417810297657291,-0.00621526896432503,0.0856165006965222,0.00475689655315609,-0.0172568101277764,-0.00420578850166415,0.2803998357288,-0.173219619942718,0.39962553001873,-0.00431076762390822,0.00640386922567365,9.79999695957817,-9.71440596566984,27.0129179158047,16.261486847768,24.3413175363972,27.7120566003656,27.7120566003656,32.6269897701739,NaN,NaN,NaN,NaN,NaN,NaN
3100000,20.0476997924257,101320.396108778,1.07346059465269,1.07911028358829,-0.0150217510919568,0.00479825802964237,0.0894792954409329,0.0124042287470725,0.00381252312528952,-0.01137729261749,0.0640979868178926,-0.0427758145889039,-0.0660786882420678,-0.00431076762390822,0.00640386922567365,9.79999695957817,-9.7105109891876,27.3369863506785,16.1453566396063,25.4660424187514,28.5260606887656,28.5260606887656,33.0016240542558,1.83560237774,2.1301192868376,3.53505506821586,1.61737407797645,-1.01471259769385,-2.52435515815552
3120000,19.9848945199812,101309.954658379,1.2393939048631,1.2450435937987,0.165360726742055,-0.0502636747010539,0.28210049563404,0.0131115196445349,0.0246077457705952,0.0251861563660655,-0.18758371748167,-0.253045887550361,-0.223677534976963,-0.00431076762390822,0.00640386922567365,9.79999695957817,-9.51800517491404,27.6587856089548,16.0345691880228,26.623415225712,29.3443833861099,29.3443833861099,33.3623694232837,NaN,NaN,NaN,NaN,NaN,NaN
3140000,19.9596210966807,101320.593445152,0.606450378558554,0.612100067494157,-0.0422284595954471,-0.226248558569654,0.376725684663699,-0.0099881702891303,-0.00319160601644766,-0.00983265122743657,-0.102131877124449,0.0431295994664621,0.259592029849014,-0.00431076762390822,0.00640386922567365,9.79999695957817,-9.4234037004904,27.9784021784756,15.9270877640606,27.8136050090333,30.1668432736351,30.1668432736351,33.7098681594149,NaN,NaN,NaN,NaN,NaN,NaN
3160000,20.0079838791741,101317.400311607,0.602932667266689,0.608582356202293,0.0175883352097798,-0.114208988278502,0.320183951092175,-0.00305285354946293,0.0109917609581018,0.0182864322175098,0.278932791731919,0.0156234350070278,0.188424431123423,-0.00431076762390822,0.00640386922567365,9.79999695957817,-9.47989851545329,28.2958714455357,15.8198389419518,29.0367722772888,30.993193616843,30.993193616843,34.0445636996065,NaN,NaN,NaN,NaN,NaN,NaN
3180000,19.9829105926398,101316.501604614,0.925986110553089,0.931635799488693,0.112069857658628,0.0327572881419814,0.173659823057431,-0.0203754692843438,-0.0314647454514315,0.000740314837454278,-0.0549961560706592,-0.0759950385580017,-0.0661798264761748,-0.00431076762390822,0.00640386922567365,9.79999695957817,-9.62636812201641,28.6111799463883,15.7110111433083,30.2930653900515,31.8230722561103,31.8230722561103,34.3666106631944,NaN,NaN,NaN,NaN,NaN,NaN
3200000,19.9055086510359,101301.906808683,0.82540315286955,0.831052841805154,0.153621141392257,-0.398535217150873,0.286951472114717,0.0216468153031781,0.0159646398663966,0.00549454034591891,0.0646022190941752,-0.272827956663854,0.356245596016073,-0.00431076762390822,0.00640386922567365,9.79999695957817,-9.51337661614127,28.9243480992754,15.6058041453986,31.5826168332581,32.6560468660792,32.6560468660792,34.6760030354394,0.554375343590813,0.74124849817161,-2.40265393628746,2.27175335934544,-1.46617583364245,-3.36105437462731
3220000,19.9487346769944,101321.673021452,0.487147892128934,0.492797581064538,0.107090803036444,-0.132283048011018,0.198099003791187,0.0147618276266801,0.014293707317362,0.00206224383326672,0.130588428778354,-0.278593515702185,0.0455629852781392,-0.00431076762390822,0.00640386922567365,9.79999695957817,-9.60203460531201,29.2354074481947,15.5001307465363,32.9055462957934,33.4919123658147,33.4919123658147,34.9732240608756,NaN,NaN,NaN,NaN,NaN,NaN
3240000,20.0267572013735,101313.322533488,0.411447867243787,0.417097556179391,0.137028697762715,-0.210437997996151,0.156740419141598,0.00805667172322737,0.0235897572221043,-0.0169877486817943,0.227229369971277,-0.500510573327109,0.583001677389091,-0.00431076762390822,0.00640386922567365,9.79999695957817,-9.64345741686352,29.5443580817095,15.3949326049337,34.2619620596157,34.3303016053951,34.3303016053951,35.2583800799131,NaN,NaN,NaN,NaN,NaN,NaN
3260000,20.0097727518464,101309.138815882,0.222982915802738,0.228632604738342,0.280430615027293,-0.103322945872096,0.125375495396892,0.0176436989839513,0.0152685466070263,-0.00360590661914178,-0.0920375508110805,-0.153328606057448,0.165598773091734,-0.00431076762390822,0.00640386922567365,9.79999695957817,-9.67481541470962,29.8512113713109,15.2903963552126,35.6519586530542,35.1708945135397,35.1708945135397,35.5316694822722,NaN,NaN,NaN,NaN,NaN,NaN
3280000,19.9508424162911,101302.532631711,0.709928318125403,0.715578007061006,-0.128246866992175,-0.0195387645465159,0.296657412911706,-0.0145133728444737,0.000546858860423206,-0.032043106876125,0.0655115592484705,0.0924502852628904,0.275559932265075,-0.00431076762390822,0.00640386922567365,9.79999695957817,-9.50329903435509,30.156020961649,15.1905626785995,37.0756181259778,36.0133873395758,36.0133873395758,35.7933108694089,NaN,NaN,NaN,NaN,NaN,NaN
3300000,19.9792875570294,101322.545104382,0.185821539071935,0.191471228007539,0.0542259743443647,-0.0411386378413665,0.353610567302307,-0.00891795265433807,0.0222823074066175,0.00609364612465041,0.113078568662255,-0.0546987037470571,0.188036728255057,-0.00431076762390822,0.00640386922567365,9.79999695957817,-9.44644027730552,30.4588573194183,15.0930730983313,38.5330140935009,36.8576638914928,36.8576638914928,36.0438818516215,0.652246016995474,1.70872826206459,-2.80884828204457,1.61067291588588,-0.71187015688942,-3.96471215181426
3320000,19.9822221768457,101324.783564305,0.172334984920889,0.177984673856493,0.0674123087239263,-0.111530325818559,0.602221751805301,0.00596216089915072,-0.00822324609805937,-0.000361774912784183,0.151983526583589,0.186542029965653,0.871297150153663,-0.00431076762390822,0.00640386922567365,9.79999695957817,-9.19788096813626,30.7598053069735,15.0017256571817,40.0242137793935,37.7035197048469,37.7035197048469,36.2837421942225,NaN,NaN,NaN,NaN,NaN,NaN
3340000,20.0148619866482,101307.89870458,0.0327630990060224,0.0384127879416264,0.060929326931027,0.13461577097875,0.373184407576717,-0.00541132472426573,-0.00155255662005582,0.0116472840404411,0.471481965290513,-0.142822625466539,0.606135105256325,-0.00431076762390822,0.00640386922567365,9.79999695957817,-9.42675454395541,31.0588914743681,14.9068910822805,41.5492798407303,38.5509325331877,38.5509325331877,36.5135764331257,NaN,NaN,NaN,NaN,NaN,NaN
3360000,19.9502443754288,101324.534496616,-0.0272861170264221,-0.0216364280908182,0.042303938995365,-0.337693423524543,0.579889379724876,-0.00890305324538805,0.0142607853816278,-0.00289225476886825,-0.0240313922951422,0.033785361069849,0.741586252502643,-0.00431076762390822,0.00640386922567365,9.79999695957817,-9.22035007640589,31.3561334807368,14.8173095545895,43.1082658049733,39.3994639260619,39.3994639260619,36.7332258527474,NaN,NaN,NaN,NaN,NaN,NaN
3380000,19.9700820846483,101319.398640442,-0.248218583483831,-0.242568894548227,0.271047159330697,-0.0799978712140467,9.84606900530043,-0.0166110769796623,0.0244827020537706,-0.0122868313674446,0.184422905549482,-0.0574987047174273,9.81232951206948,0.00119627866165664,0.00467539569831375,9.79999881171383,0.0460627324720999,31.6534477000364,14.914112375369,44.7012155203626,40.2490721565102,40.2490721565102,36.9432884743025,NaN,NaN,NaN,NaN,NaN,NaN
3400000,20.0298669781268,101326.739882405,0.0171337986678135,0.0227834876034175,0.142208273358416,0.0173384575303841,9.74441353757975,-0.00148298442713754,0.0537987465371327,-0.00345796348523897,0.193168954532012,-0.0447626215333872,9.80330804410206,0.00401697388002452,0.00492921566209455,9.79999793707906,-0.0555215022201168,31.9526662438783,15.0077420088218,46.3283377185831,41.1081201789872,41.1081201789872,37.1597733685082,0.109718851330058,0.474847041979267,-1.01682433544439,1.29805929820178,-1.56140882620484,0.339345387664269
3420000,19.9525684595335,101310.76233445,-0.320660784712546,-0.315011095776942,0.127649906220137,0.047959637084714,9.83513533288178,-0.00267223828136885,-0.00121965224480899,0.0378058754328323,0.139986292799502,-0.11385164019047,9.68801373072759,0.00648916600626793,0.0057894078771544,9.79999614150337,0.035244317626308,32.2537644219928,15.1020758026273,47.9900118854315,41.9767015253417,41.9767015253417,37.3824457502852,NaN,NaN,NaN,NaN,NaN,NaN
3440000,20.0150174428191,101329.157705395,0.0793929445827138,0.0850426335183178,0.0195854868888084,-0.0499974251031618,9.79852580522833,-0.0236348450941007,0.0127384409075154,0.0208216296422675,0.196752682652896,-0.0696883611196781,9.85136896007007,0.00675111297030562,0.00467368544147674,9.7999965601595,-0.0014879859726058,32.5567306640698,15.1945484050787,49.6866247330549,42.85508565312,42.85508565312,37.611405208191,NaN,NaN,NaN,NaN,NaN,NaN
3460000,19.9691711311141,101322.155897135,-0.190836937543933,-0.185187248608329,0.219483159074398,-0.0855794844713577,9.88586812659851,-0.00588169209771256,0.0116361056687806,0.00223468280774405,0.0176019856109878,-0.0571035796869862,9.90388381336284,0.0110038219467556,0.00286811848645509,9.79999340253854,0.0860828694421159,32.8615527606661,15.2876612545427,51.4185712554355,43.7434160623125,43.7434160623125,37.8465244895926,NaN,NaN,NaN,NaN,NaN,NaN
3480000,19.9476616945705,101340.876770079,0.0182480724842701,0.023897761419874,0.373350931710928,-0.0403419344780748,9.81179425813257,-0.00292677117676472,-0.0151211394642895,0.00528110567036065,-0.130178127054105,0.121961815811307,9.89911398931505,0.018250304870282,0.00200386699954017,9.79998280156089,0.0124640725111416,33.1682111333205,15.3781760109043,53.1862545831277,44.6419571877023,44.6419571877023,38.0878975702017,NaN,NaN,NaN,NaN,NaN,NaN
3500000,19.9468477643929,101314.200921767,0.258856183160548,0.264505872096152,0.20600521671852,-0.117973892918127,9.70402437925394,-0.00244091690332633,-0.00111834821788309,-0.00120770109992432,0.234682368309503,0.229932756268791,9.73573891724456,0.0220096964534701,-0.000395765399236448,9.79997527632758,-0.0955326734855841,33.476647192764,15.4654299334451,54.9900850746724,45.5508045262048,45.5508045262048,38.3353249046053,1.55647810904607,2.1880477349189,-1.94801216219186,2.00005738898382,-0.9595810152887,0.593694878664893
3520000,20.0229974458502,101319.91887226,0.113349971298003,0.118999660233607,-0.162533085713829,-0.127219990361943,9.71599966683476,-0.010114261735567,-0.00425446401437722,0.0388984827008345,0.0927307054759914,-0.137260932931507,10.0798143733982,0.0183219941986757,-0.0029327546533141,9.79998243383521,-0.0842835472556533,33.7868199065786,15.5518414480165,56.830475930703,46.4700043520523,46.4700043520523,38.5885402499354,NaN,NaN,NaN,NaN,NaN,NaN
3540000,20.0464764699117,101318.696422878,0.0140525244873727,0.0197022134229767,-0.0897161741835034,-0.0206504242929744,9.85442110562717,0.0122290173182076,-0.0146662417315586,0.0117557954710215,0.094179950002664,-0.0843029387309287,9.53511939679814,0.0161594416134509,-0.00328674412880614,9.79998612599833,0.054266145334056,34.0987379302519,15.6399609193149,58.7078445561414,47.3997216957697,47.3997216957697,38.8474954305505,NaN,NaN,NaN,NaN,NaN,NaN
3560000,20.0581391729777,101335.944943172,-0.102678897867811,-0.097029208932207,-0.0240335165533352,-0.107443097391407,9.89479303475026,-0.0194356697310257,0.0396609661462745,-0.00600043682492656,-0.0312028372398162,0.0343869740519404,10.0110351102685,0.015352612560731,-0.00536883261909656,9.79998650371131,0.0948006188068486,34.412415548763,15.7278009317924,60.622617771176,48.3402634800085,48.3402634800085,39.1123802405121,NaN,NaN,NaN,NaN,NaN,NaN
3580000,19.982967768019,101336.53852163,-0.0653800954352336,-0.0597304064996296,0.0866649210060594,-0.0879492026039073,9.80123757528533,-0.00966370342403491,0.00406594477043422,0.0105524999198869,0.301722133166627,-0.0971715449716432,9.72732207482258,0.0167788100993206,-0.0070204196713884,9.79998312168135,0.00143207999481021,34.727820365603,15.8126807522078,62.5752325431208,49.2918292122382,49.2918292122382,39.3831992417763,NaN,NaN,NaN,NaN,NaN,NaN
3600000,20.0088070331609,101320.901287601,0.0407517566524359,0.0464014455880399,0.0697229022889567,0.0698170674282421,9.86097679489368,0.00211987804413221,0.00950484526799104,-0.0110917847008037,0.0749158464045747,0.163892627777011,9.84133154927896,0.0178354702240784,-0.00548298692769904,9.79998223635412,0.0610467507895844,35.0449240837054,15.8976910580264,64.5661306031566,50.2544562880668,50.2544562880668,39.6596989445877,1.75300402108269,1.17735130646261,-2.49091171402942,1.52865240464054,-1.08071659062504,0.520225214186192
3620000,19.9755543755123,101327.41910908,0.262362025782522,0.268011714718126,-0.157763320041429,0.100285897110898,9.90401340905556,0.00157507537416825,0.0206398787323248,0.0223686612045146,-0.173087125522404,0.158562118593624,9.8875027400113,0.0143204638819243,-0.00336689673477044,9.79998895858157,0.103737261041033,35.3637258543416,15.9824860055932,66.5957586326453,51.228356288294,51.228356288294,39.9419193298904,NaN,NaN,NaN,NaN,NaN,NaN
3640000,19.9847095975632,101341.366508636,0.0841798921613836,0.0898295810969875,-0.0538646552797632,0.0480767193107734,9.92105792682297,-0.010450617316659,-0.00329231001592444,-0.0231573549972681,-0.00755659673600648,0.309085571120936,9.84041909204892,0.012953563845563,-0.00233744740307797,9.79999116027782,0.120966313001571,35.6842162480327,16.066553363522,68.6645713614462,52.2137198884473,52.2137198884473,40.2298666688498,NaN,NaN,NaN,NaN,NaN,NaN
3660000,20.0172512174764,101326.386105828,0.0844597734227115,0.0901094623583154,-0.0196888596432745,-0.0870417946253296,10.024557135307,0.0108774113167068,0.0164047019578415,0.0183843381080613,0.117285927783508,-0.211328765171697,9.8001069234037,0.0122950809355304,-0.00402968767123416,9.79999145880251,0.224559487694867,36.0063980215058,16.1516239837881,70.7730304733737,53.2107038544538,53.2107038544538,40.5234959740001,NaN,NaN,NaN,NaN,NaN,NaN
3680000,19.9478707418813,101325.530530619,0.133582591251129,0.139232280186733,-0.0299404586172045,-0.256059450609465,9.86519658944049,0.00252032671520941,-0.00343972354505583,-0.00379366315254943,0.195834150711654,0.146192071181633,9.91536400064646,0.0114488438888673,-0.00906907392365076,9.79998911610986,0.0653876166582368,36.3302385024031,16.2324241059418,72.9216060975818,54.2195745442657,54.2195745442657,40.8229336361241,NaN,NaN,NaN,NaN,NaN,NaN
3700000,19.9503074676141,101308.847148211,-0.0174342162527834,-0.0117845273171795,-0.168387447059779,0.086861672372086,9.91234297020708,0.00920510755914281,0.0253883807824087,0.0147752996144127,0.00341652570439345,0.0892034397103305,9.94336244417863,0.00785032215153153,-0.00714882356122035,9.79999424830259,0.112138902117985,36.6556939579358,16.3131214473253,75.1107721187507,55.2402507237482,55.2402507237482,41.1277755503534,1.67722841006956,0.154103128111021,0.785098399982155,1.87590778556478,-1.00972975254303,0.467248636058562
3720000,19.9594974664222,101305.608232873,-0.295774490426452,-0.290124801490848,-0.0502374039326752,-0.0508935335905847,9.97268409401058,0.0120329562197009,-0.0197694841867217,0.0303284737341665,0.106155027859319,-0.0220354095204054,9.99938343246093,0.00668621134725753,-0.00802089112574527,9.79999443672716,0.172685811646208,36.9827650531255,16.3939880716482,77.3410043677798,56.2729130177775,56.2729130177775,41.4380335643608,NaN,NaN,NaN,NaN,NaN,NaN
3740000,19.9765772014773,101335.414083224,0.018077194607995,0.023726883543599,0.127376133253569,-0.166037683149309,9.80031483521688,0.00446218339622076,0.0207854958707114,0.00591730915761805,-0.132441697295071,0.030773743506803,9.71250124528635,0.0090999991548553,-0.0111812139044337,9.79998939644687,0.000611948216610259,37.3114085758064,16.4703641964417,79.6127862657512,57.3177604486455,57.3177604486455,41.7537471351815,NaN,NaN,NaN,NaN,NaN,NaN
3760000,19.9539160980424,101340.546925912,0.537136180977577,0.542785869913181,-0.170500945823228,0.0586329941567906,9.725229570994,0.0018164831371271,-0.0165275729570251,0.00886843680077851,-0.0452285459339976,0.137956887303634,9.93807818452993,0.00550882308627384,-0.00978642703287706,9.79999356523841,-0.0749312092712415,37.6415545570157,16.5442339244886,81.9266026264929,58.3746612121099,58.3746612121099,42.0744718684188,NaN,NaN,NaN,NaN,NaN,NaN
3780000,20.0089649385806,101327.084379874,-0.231708193312247,-0.226058504376643,-0.157650654616443,0.0481132819713605,9.75626506980616,-0.0105145859904734,-0.00743264195915712,0.0126987764675823,0.269350618048127,0.00200585781741982,9.90897631451176,0.00224583449970113,-0.00862920503329096,9.79999594352201,-0.0438174621049132,37.9731744828795,16.617758661885,84.2829353660474,59.4436032188786,59.4436032188786,42.3999625217033,NaN,NaN,NaN,NaN,NaN,NaN
3800000,19.9909103339483,101322.026348532,0.155389645497312,0.161039334432916,-0.108152271721726,0.0866932539529526,9.92706672344143,-0.0148036034815335,0.011342775542963,-0.0163032033336065,0.122075555927821,-0.0225843073000333,9.73429890176753,3.78625632106318e-05,-0.00672101410654162,9.79999769523115,0.127004515166004,38.3062893974223,16.6937327923999,86.6822688207277,60.5247206900054,60.5247206900054,42.7301974957022,1.92047177327038,2.5281688972144,-0.4511822031555,2.12657047308456,-1.07717778020159,0.488040381343272
3820000,20.0605272518099,101320.368785979,-0.112021785386893,-0.106372096451289,0.106067475195114,-0.0697828783460506,9.99194522322047,0.00265723081977333,-0.00687809394483441,0.000609624474799945,0.144496038590705,0.0149762342298418,9.84583117361754,0.00215760935597109,-0.0079791247688819,9.79999651419784,0.192021838376146,38.6409267603672,16.7700035020846,89.1250968401961,61.6183565575054,61.6183565575054,43.0654523134122,NaN,NaN,NaN,NaN,NaN,NaN
3840000,20.0335493979047,101333.306938114,0.0197917177093308,0.0254414066449347,0.0290993815745986,-0.191791021032857,9.76780756315539,0.0104311041761734,0.000470997670519111,-0.00788360210334833,0.159652573781774,0.0670904953431281,9.77282569362635,0.002696620895849,-0.0116561238656801,9.79999269708974,-0.0319635923062673,38.977034617508,16.8407822120026,91.611923969368,62.7247015155692,62.7247015155692,43.4057752089745,NaN,NaN,NaN,NaN,NaN,NaN
3860000,19.98811105355,101339.855075911,-0.22711605149933,-0.221466362563726,0.0310953328029086,0.181676910799191,9.85268640970412,0.00569492690633247,-0.00437534837165014,0.0173872978640771,-0.173713821905829,-0.063310075193017,9.58878643224712,0.00326424532333591,-0.00778862850924774,9.79999636132425,0.0525487197139718,39.3145655160353,16.912307640727,94.1432534062485,63.8434943841072,63.8434943841072,43.7505863387412,NaN,NaN,NaN,NaN,NaN,NaN
3880000,19.9677341583211,101333.511836443,-0.0441389643429588,-0.0384892754073548,-0.12967765698528,-0.0630196411330267,9.82875915056688,-0.00198829042351395,0.00573492482154415,-0.00360844932286197,0.160311000537892,0.300416238808895,9.65319083512628,0.00060537171646954,-0.00889272638594371,9.79999594657786,0.0288042600699239,39.6535125990589,16.9824006616344,96.7195871816918,64.9749413498501,64.9749413498501,44.0999786974918,NaN,NaN,NaN,NaN,NaN,NaN
3900000,19.9906133858011,101336.012356484,0.0220548324476292,0.0277045213832331,-0.0107698209883006,0.0985141149902622,9.77252183190001,-0.0143965173966147,-0.0245126604326412,0.0267632293300647,-0.118552056255204,0.125475612017344,9.50834934522457,0.000377889116994589,-0.00674496893360716,9.79999767156064,-0.0275487088313966,39.9938408491085,17.0504243433157,99.3414321370271,66.1190755524742,66.1190755524742,44.4538058100435,1.50798710887902,0.00702701458905874,0.722567317874616,1.88695902076073,-0.998382393087243,-0.719310882774753
3920000,20.0027599011652,101330.251508158,0.212708086473613,0.218357775409217,-0.231248876326442,0.130454616792398,10.0347158506188,0.0063662744718942,-0.0172928945785556,0.0127901330044348,-0.19373870135164,0.085213415773097,9.9554232341847,-0.00425260937657794,-0.00399906184205402,9.79999826136811,0.234761184127191,0.220603222513482,-9.33333714349268,0.00570968039897733,0.00376557560039127,0.00376557560039127,0.445407578591112,NaN,NaN,NaN,NaN,NaN,NaN
3940000,19.9687251206084,101306.995365182,0.176659402197579,0.182309091133183,-0.0216847576804623,0.0835098603008694,9.76806257812596,5.62196768077571e-06,-0.0105386389745617,-0.0194111038711707,-0.188301515586219,-0.174038149975269,9.95199919471583,-0.00460155243618227,-0.00224903007129698,9.79999866161108,-0.0319477388234546,0.111650791297327,-8.87278462185042,0.002931968582557,0.00575928038346487,0.00575928038346487,0.386882541077675,NaN,NaN,NaN,NaN,NaN,NaN
3960000,20.0094838730373,101313.500663794,0.227958856419761,0.233608545355365,0.0305039053214764,-0.0315579086788635,9.58100699520555,0.0124950825882021,-0.00468170787498502,-0.0139233612231881,-0.0757853523189368,0.0741597044936097,10.0861988343521,-0.00390118686684479,-0.00283647537001218,9.79999881301771,-0.218997174252587,0.0458014872906264,-8.16301117763276,0.00209285450845591,0.00800280976923529,0.00800280976923529,0.329702582769647,NaN,NaN,NaN,NaN,NaN,NaN
3980000,19.9886218511723,101336.822794595,-0.0864330883611478,-0.0807833994255439,-0.0236199312408337,-0.0203350955664819,9.88811464348695,-0.00994941250774815,-0.022146925316473,-0.00392496705099552,-0.10784639022168,-0.123713990606962,10.0510740135622,-0.00429478931069004,-0.00318587477524187,9.79999854107064,0.088130133449754,-0.104307088374639,-7.8339311878048,0.00175370122674089,0.00952682791264195,0.00952682791264195,0.275211126377962,NaN,NaN,NaN,NaN,NaN,NaN
4000000,20.0040608147643,101327.862653435,-0.124184803044336,-0.118535114108732,0.0379016386432275,0.0450453538607699,9.95004438551917,0.0096927870943652,-0.0075397029582562,-0.00335863021391038,-0.0678582634406493,-0.109368218629606,9.68933540775444,-0.00344980457739451,-0.0022205703642544,9.79999914122015,0.150019964649585,-0.219068111539852,-7.31974391587265,0.00160404243719385,0.0102052226612519,0.0102052226612519,0.223815787027292,1.54498776342239,-0.188964355773628,1.35773873962277,1.83746274707646,-0.411258217304734,0.298638226772324
4020000,19.9909863005982,101314.629286732,-0.060829756177083,-0.0551800672414791,0.052688485460046,0.126075744419145,9.6440135785143,0.0189047747763172,-0.0126987044268938,-0.0219586105387423,-0.283826764777291,0.042666673610698,10.0095486775516,-0.00232777993407548,0.000345465926621683,9.79999971745377,-0.155994770180099,-0.280608408074867,-6.53004307567499,0.00152914234158135,0.0101865456822528,0.0101865456822528,0.178678994536374,NaN,NaN,NaN,NaN,NaN,NaN
4040000,19.9871395872078,101307.575153913,0.39361890758766,0.399268596523264,-0.223374650919902,-0.0974182924093981,9.93013525356439,-0.00836713092662926,-0.0356589788755757,-0.0200834508154792,-0.141333610335573,-0.00909399440523155,10.0324256202805,-0.00674692399146333,-0.00160938145936702,9.79999754535214,0.130302549482733,-0.40903806573521,-6.31292269035955,0.00199659709529882,0.0131119280707314,0.0131119280707314,0.16382620795845,NaN,NaN,NaN,NaN,NaN,NaN
4060000,20.0829690489727,101333.066591309,0.354159768244007,0.359809457179611,0.116571993501789,-0.105136274934928,9.84814217020897,0.00737837014499204,-0.000149610986919508,0.00729830782803361,0.0166596933744006,0.0889858532280468,9.83840579486964,-0.0042801254627958,-0.00367955810761667,9.79999837455997,0.0481290992610859,-0.533180809834807,-6.10135171959987,0.00257290160947997,0.0156353996977186,0.0156353996977186,0.150246619837051,NaN,NaN,NaN,NaN,NaN,NaN
4080000,20.0332692768193,101315.800125517,0.0173994348471938,0.0230491237827978,-0.26675026477095,0.147753005507358,9.61188596779569,0.00188352726283844,0.0170630843675412,0.025131445622321,-0.0584885920580022,-0.250837278822414,9.91086755887647,-0.00953318511739857,-0.0006511566148027,9.79999534154872,-0.187868930897704,-0.653176124793697,-5.8981797762894,0.0032427984826646,0.0177973116841851,0.0177973116841851,0.137820164371376,NaN,NaN,NaN,NaN,NaN,NaN
4100000,19.9826405903513,101318.464900973,0.253653679561502,0.259303368497106,-0.00019830976872983,0.192193714607711,9.67224153899119,0.0150762845192808,-0.00872625028737897,-0.00749253874750884,-0.0826761996272948,-0.0112524758366596,10.0063979441517,-0.00934892477198496,0.00320657672882893,9.79999501609421,-0.127700304648078,-0.769130116970487,-5.69721944138978,0.00399255147287996,0.0196334167573576,0.0196334167573576,0.126435950526185,1.02884575036113,0.606007874558762,-0.46615796323091,1.37141356806748,-1.07613236156873,0.517418770976341
4120000,20.0365374497893,101326.181344376,0.00618165909569333,0.0118313480312973,-0.21324229421095,0.0620913337238064,9.87304715620652,0.00954114275721904,-0.000796342757027989,-0.00743519115917402,0.187036804153299,-0.220481389710379,9.87424697738197,-0.0134247835994639,0.00438361601000211,9.79998982443839,0.073356794208463,-0.881057331492504,-5.49550201081173,0.00480978800944869,0.0211762455024953,0.0211762455024953,0.116003036809645,NaN,NaN,NaN,NaN,NaN,NaN
4140000,19.9974961095045,101329.445489116,0.054918416912531,0.0605681058481349,-0.240826091748365,0.0714736595518573,9.75957121970493,0.00502409966063603,0.00609708913074299,-0.0584058451309983,0.17275419796151,0.424943221880435,10.2348630131878,-0.0179742777711894,0.00572588452959169,9.79998184383956,-0.0399633998207616,-0.98900448708609,-5.29921354854711,0.00568337863646559,0.0224554834872768,0.0224554834872768,0.106442564594823,NaN,NaN,NaN,NaN,NaN,NaN
4160000,20.0352282385802,101333.884634537,-0.349083715123178,-0.343434026187574,-0.0418943167963155,0.0963298831879098,9.95530578707018,0.00777344779822837,-0.00616077206206116,-0.0354051738118658,0.0703395733966536,0.059585840113911,9.65269826447915,-0.0184468271657098,0.00753557419721508,9.79997974128973,0.155438137738315,-1.09301647328668,-5.10198507151149,0.00660331005760128,0.0234972565533558,0.0234972565533558,0.0976763613646481,NaN,NaN,NaN,NaN,NaN,NaN
4180000,20.0173087997051,101320.793000794,0.241612125921716,0.24726181485732,-0.0770926820759477,0.0559308192249204,9.9476917375079,0.0281469504960553,0.00254000026392623,-0.0205350631993622,-0.147987505334606,0.139013141651706,9.63469740681336,-0.0196138254859479,0.00850091381434618,9.79997668529442,0.147870882199953,-1.19311413853451,-4.90778145327227,0.00756057522451411,0.0243258219352456,0.0243258219352456,0.0896403899564771,NaN,NaN,NaN,NaN,NaN,NaN
4200000,19.9932016929044,101326.386427024,-0.257889173210133,-0.252239484274529,-0.00184627288412216,-0.0104526077539692,10.0889501041378,-0.00408286915728938,-0.00894289282411586,0.0155306142998019,0.14031246295693,-0.0544739695029881,9.84285362403566,-0.019247125643219,0.00811705727695128,9.79997773780816,0.288922154024267,-1.28932675077964,-4.71347977124054,0.00854708179492,0.0249626684289408,0.0249626684289408,0.0822727587350488,2.74148517820967,0.831090502883133,-1.25468489539473,2.3288358749014,-0.881952366072414,0.0949095135298017
4220000,19.9552299084324,101318.573878878,0.202021732504362,0.207671421439966,0.0325382145620031,-0.129713620402456,9.81061697268823,-0.0159314301093629,-0.00420127932897016,-4.75293452575779e-05,-0.240225323702011,-0.347567992255556,9.89344489932358,-0.0182110306294036,0.00536032945569805,9.79998161351497,0.0104671517775774,-1.3817352063642,-4.52736578721523,0.00955556229350049,0.0254275932030763,0.0254275932030763,0.0755200993333886,NaN,NaN,NaN,NaN,NaN,NaN
4240000,19.9721407847979,101322.336011761,0.102656865029154,0.108306553964758,-0.265123243503709,0.0775922918812371,10.0782837137571,0.0144643811925865,-0.044263892818565,-0.0129289470450757,-0.119634874279513,0.0931649438585506,10.1079162231498,-0.0231361077441638,0.00680109808646328,9.79997032983179,0.278932959506278,-1.4703917798931,-4.33829156567469,0.0105794815673137,0.0257374092349452,0.0257374092349452,0.0693278488061111,NaN,NaN,NaN,NaN,NaN,NaN
4260000,20.0047741897382,101330.155137031,0.0539977205684666,0.0596474095040705,-0.176067027352486,-0.0743709061188443,9.8221574276996,0.00896684517984615,0.000686610342470168,0.00508065376742236,-0.0594498011539571,-0.0427564994210621,10.2227574232805,-0.0261935221796877,0.00517742002789951,9.799963627163,0.0225522752951175,-1.55534162542159,-4.15669298717427,0.0116129708958002,0.0259086923528874,0.0259086923528874,0.0636548815066294,NaN,NaN,NaN,NaN,NaN,NaN
4280000,20.0110066966706,101329.82759724,-0.151083078011791,-0.145433389076187,0.0425569334686924,-0.0143800429113525,9.80804221865807,0.0188214640602621,0.00638258292016346,-0.0156467920260637,0.31337288935906,0.0460468561466048,9.80634913649997,-0.0248181134602054,0.00478619370466766,9.79996740574142,0.00789480086842609,-1.63668403990619,-3.97754846128544,0.0126507671822404,0.0259551325498508,0.0259551325498508,0.058456997653151,NaN,NaN,NaN,NaN,NaN,NaN
4300000,19.9849642377998,101335.965576203,-0.0833394279848782,-0.0776897390492742,-0.0207361849628987,0.1297916971852,9.75324309491806,0.00917136492474833,-0.0254620917343416,-0.00792492219276938,0.00487765668730415,-0.159350690171071,9.39448531992001,-0.0247388305051913,0.00728699763733059,9.79996606575404,-0.0466418222446183,-1.71447488297676,-3.80153584577231,0.0136881398892135,0.0258897061318301,0.0258897061318301,0.0536976642580615,1.90205399966186,1.10262666948556,0.590685914578525,2.07407273774225,-1.0785490839782,-0.0854783067183559
4320000,19.9608995352693,101328.036675529,-0.119993743033818,-0.114344054098214,0.16366828198777,-0.0356177231001606,9.79023518865931,0.0237570584596527,-0.0118133938527083,0.00621467668847616,-0.291333972338521,0.19151794346911,10.1385392908889,-0.0209711248084534,0.00642903705499169,9.79997545300022,-0.0101629354765489,-1.78875735725007,-3.62671158155837,0.0147208513183745,0.0257240945549699,0.0257240945549699,0.0493435100084724,NaN,NaN,NaN,NaN,NaN,NaN
4340000,20.0281561401008,101326.760407319,-0.0746367052026634,-0.0689870162670594,0.0730729828645181,0.151946090961117,9.91295360330066,-0.000717185186498488,0.0137980027169935,0.00711740313574096,-0.152076052769305,0.0205751131934265,9.97026486962755,-0.0190858450140257,0.00933722670776891,9.79997696664219,0.112932763184919,-1.85953691775404,-3.45124446883814,0.0157451143066634,0.0254691639447778,0.0254691639447778,0.0453653270687682,NaN,NaN,NaN,NaN,NaN,NaN
4360000,20.02454305869,101314.885856411,-0.210002860829876,-0.204353171894272,0.167446916089923,-0.144495007172234,9.82954915482083,0.0112753547350728,-0.00714815920511516,-0.00691377060781059,0.299333328233258,-0.164714988571066,9.70649619639487,-0.0153542772480689,0.00626020996991556,9.79998597223187,0.0291804321580837,-1.92684128304868,-3.27919206062612,0.0167575616811295,0.0251350648733698,0.0251350648733698,0.0417373460376645,NaN,NaN,NaN,NaN,NaN,NaN
4380000,20.0038713220583,101321.224008659,0.188960561370474,0.194610250306078,0.169611542413506,0.0446030698048191,9.61360726944606,0.0156308337837896,-0.00310981123052963,0.0118951225842331,0.158147296571722,-0.355157758207513,9.85814726271083,-0.0116594011216179,0.0070297443144216,9.79999054290668,-0.186571805820533,-1.99076397112707,-3.11307674721314,0.0177552043083093,0.0247305521223724,0.0247305521223724,0.0384344733875214,NaN,NaN,NaN,NaN,NaN,NaN
4400000,19.962678631339,101320.854256461,0.0334807890682921,0.0391304780038961,0.0454285872192061,0.209880802381331,9.88578715927786,0.0040109709718644,0.015168267987953,-0.0037509294133199,-0.124315688425155,-0.112857930569522,10.0143069587347,-0.0105157974544496,0.0110848217994095,9.79998808900958,0.0859637943753579,-2.05132471972063,-2.94299811214303,0.0187353811190454,0.0242632825524164,0.0242632825524164,0.0354333009848821,1.94893958919671,0.298393590885604,0.993782925151358,1.70191572699937,-1.32426273811537,-0.0295187542233658
4420000,19.9743411238619,101318.025676275,-0.173885647949182,-0.168235959013578,0.103100662948863,-0.151773919274136,9.78876478632429,-0.00807521426753005,0.00563122644948671,0.00536508038668818,0.105843767818555,0.0429993070979559,10.0436320628027,-0.0082436615381079,0.00782783051954252,9.79999340648318,-0.0114497575402375,-2.10851780616112,-2.776310531906,0.0196957478500551,0.0237414679860563,0.0237414679860563,0.0327160985820219,NaN,NaN,NaN,NaN,NaN,NaN
4440000,19.9357501370099,101348.823757435,-0.0475772904944078,-0.0419276015588039,-0.00661576735444308,-0.246702783118989,9.87529869697463,-0.00636719959136416,0.00131739020894622,0.00107828396658983,0.111318506463282,0.108119036664216,9.85988535607069,-0.00820984425269815,0.00273679841801828,9.79999617899884,0.0752314934139395,-2.16237315861333,-2.60922471331482,0.0206342581756065,0.0231717895583387,0.0231717895583387,0.0302643519472757,NaN,NaN,NaN,NaN,NaN,NaN
4460000,20.0395236058407,101322.408606999,-0.0583083348384659,-0.0526586459028619,-0.0238383692013492,-0.0322281983560725,9.75574207573122,-0.0194715723130478,0.0150433434372087,0.0239944430540018,0.240405502967048,-0.130266558225469,9.7110576007844,-0.00852318443454908,0.00203768249466701,9.79999608179397,-0.0442477933530423,-2.21292329514103,-2.44578893945485,0.0215491306810257,0.0225608263208682,0.0225608263208682,0.0280624735965717,NaN,NaN,NaN,NaN,NaN,NaN
4480000,19.9495375111968,101340.870516416,0.096399267604491,0.102048956540095,0.208429632700753,-0.256669089459632,9.99658118974498,-0.0108094799410484,0.0135662014604267,0.0253274396034543,-0.0851347901147728,-0.302864808771721,9.81884604283776,-0.00418245119415434,-0.00313519592967713,9.79999860600237,0.196572927082528,-2.26016812461475,-2.27869400791758,0.0224388277819092,0.0219141932778329,0.0219141932778329,0.0260953845016724,NaN,NaN,NaN,NaN,NaN,NaN
4500000,20.0070487398823,101327.995894909,0.00576312026047945,0.0114128091960834,0.0812114192633997,0.0225161857474471,9.89293548614811,-0.00933971652803853,-0.00549387335068925,-0.0131711131035163,0.168295919632506,0.0312004456046625,9.70136125453592,-0.00247410471325283,-0.00262167124687306,9.79999933702272,0.092908290802864,-2.30410284641646,-2.11477817225273,0.0233020435727991,0.0212378754640781,0.0212378754640781,0.0243512239843555,4.29759577652198,-0.016324322574121,-0.337913158169326,1.31262102636061,-0.644754843747446,-0.110299760642789
4520000,19.9910414353525,101331.037727994,0.356319327284613,0.361969016220217,0.19461999675726,0.192897735153701,9.8264451172394,0.00139569583491025,-0.00261268924235801,0.0163922184989476,0.0108990944803197,0.0050228199749573,9.96134396671114,0.00146769817318912,0.00128864739315946,9.79999980536989,0.0264994343878922,-2.34478262090399,-1.95319927650098,0.0241376886523961,0.0205367115482194,0.0205367115482194,0.0228178304741222,NaN,NaN,NaN,NaN,NaN,NaN
4540000,20.0044675518473,101325.076242594,-0.00203318451719806,0.0036165044184059,0.214509972914199,-0.0647633163306154,9.76319868125071,0.00269726394433399,-0.00660803241780865,0.0246412197829903,0.233071970379643,-0.090761151240648,9.65253171436122,0.00572897307362027,-3.23943093774067e-05,9.79999832539874,-0.0366773727944967,-2.38225265995004,-1.79380462810418,0.0249448621476453,0.0198152971190038,0.0198152971190038,0.0214846114266784,NaN,NaN,NaN,NaN,NaN,NaN
4560000,20.0139489303388,101327.281292935,0.326741899123864,0.332391588059468,0.249008191308248,-0.159323951699631,9.80998345688654,-0.00353894916788426,0.0273589733077539,0.0124898278685885,-0.113491401878499,-0.124135416751539,9.65791770879666,0.0105943365971125,-0.00321815837398652,9.79999374507396,0.0102987064357709,-2.41653377681772,-1.63430705866306,0.0257228413997161,0.0190779536893059,0.0190779536893059,0.0203422523804043,NaN,NaN,NaN,NaN,NaN,NaN
4580000,20.0388269602876,101324.716721421,0.190366239817595,0.196015928753199,0.312357510428867,-0.0595210209958923,9.88410393942478,0.00544114106880506,0.0101683486053043,-0.0107449966598091,0.0724027732720215,-0.204219019521899,9.88303862739084,0.0166267310827639,-0.00434346614866159,9.79998493295349,0.0846450708139219,-2.44761773197469,-1.47408845703425,0.0264710755554167,0.0183289574441586,0.0183289574441586,0.0193829220673717,NaN,NaN,NaN,NaN,NaN,NaN
4600000,19.9862144527679,101319.839627612,-0.179805657687052,-0.174155968751448,0.0959868439815984,0.0383883066876498,9.77242892091092,-0.0145230363547545,-0.0303975252268243,0.0312046003497757,0.028317319620411,0.044793404809791,9.59921890166838,0.0182149530795845,-0.00348902602021014,9.79998245111601,-0.0274238379832585,-2.475526704929,-1.31680883839667,0.027189180951778,0.0175723969702542,0.0175723969702542,0.0185998413369598,1.91119450972193,0.854209914140802,-1.10286069037737,1.39691083927848,-1.16870083612612,-0.00817840962127586
4620000,19.9746560226263,101330.464643325,0.234407309883463,0.240056998819067,0.00268946133077637,-0.497943339859661,9.77708873027855,-0.0270939927726679,0.0419936736149361,0.0134097434227118,0.145552084688501,0.160163890200676,9.9467823277125,0.017905265306784,-0.0133787265378303,9.79997451073984,-0.0222520051769894,-2.50029519974853,-1.16004064355676,0.0278769274095508,0.0168118601078008,0.0168118601078008,0.0179866792205441,NaN,NaN,NaN,NaN,NaN,NaN
4640000,19.9754762623524,101319.153355719,-0.247169241847917,-0.241519552912313,0.117393964533106,0.0157194372443172,9.61477112840839,-0.0233418308983685,-0.00119808964894204,-0.0129835047661818,-0.201603318458191,-0.134289559941116,9.40332663679177,0.0199025555454391,-0.0128015978203552,9.79997142890611,-0.185039024504103,-2.52196632705977,-1.00707208756679,0.0285342290163944,0.0160509786771249,0.0160509786771249,0.0175383677695996,NaN,NaN,NaN,NaN,NaN,NaN
4660000,20.0271910894122,101309.218476025,0.224618832102489,0.230268521038093,0.0691492145464115,-0.167754039803879,9.82965952019983,-0.00183509709952323,-0.0104273008287453,0.0174812198408515,0.356078162235577,-0.0335421834061861,9.88718903876423,0.0208862092368984,-0.0158996726465495,9.79996484517539,0.0300437997228116,-2.5405397101701,-0.850266223466679,0.0291611379395243,0.0152930272905546,0.0152930272905546,0.0172503300066308,NaN,NaN,NaN,NaN,NaN,NaN
4680000,20.0446224194147,101326.320512015,-0.0889126145677772,-0.0832629256321732,0.120759194428151,-0.00019683199907309,9.82898321263767,-0.017332701457839,0.00076615940266778,-0.0178978412265795,-0.0127356781232372,-0.10111986390085,9.76174099625559,0.0228823045922429,-0.0155846866027438,9.79996089368116,0.029226267829797,-2.55598121906717,-0.693884666240321,0.0297578454901234,0.0145416969071504,0.0145416969071504,0.0171196635563094,NaN,NaN,NaN,NaN,NaN,NaN
4700000,20.0064499650014,101306.12180877,0.241430915133812,0.247080604069416,0.174305938305479,-0.23398998405083,9.97521864185886,-0.00531206966841993,-0.00468812550679048,-0.00937714512419384,0.201528850936035,-0.0900937082289623,10.21467970399,0.0259014723089368,-0.0199456271978375,9.7999454736079,0.176100064791633,-2.56826910454259,-0.534903881301436,0.0303246829474016,0.0138002963620292,0.0138002963620292,0.0171437446099744,2.40922239199499,0.622859948858074,2.98181233407427,2.00069821884136,-1.52383313584743,0.355796804800918
4720000,20.010759527451,101335.48721675,0.288923481904238,0.294573170839842,0.177022676086384,-0.217879239594754,9.77563529932429,-0.00667791994801225,0.0275663037682197,0.00793072349757492,0.252251090028164,-0.20714742284571,9.92737004949953,0.0289252803383406,-0.0239054432213904,9.79992815575409,-0.0233823938209206,-2.57742000722651,-0.380186387090595,0.0308621158892319,0.0130722370955244,0.0130722370955244,0.0173210178174674,NaN,NaN,NaN,NaN,NaN,NaN
4740000,20.0151361843591,101333.385560321,0.106862320107581,0.112512009043185,0.0559695160903692,-0.00811074936048344,9.8153281906103,0.0134764327400495,-0.00867078069866992,0.00715092695876199,0.156406959483688,0.0698731620398177,9.70883752873605,0.0294652364645305,-0.0235888059494186,9.7999273144281,0.0154431952201257,-2.58347077809519,-0.224890699776969,0.0313707386029755,0.0123605434597546,0.0123605434597546,0.0176499914379252,NaN,NaN,NaN,NaN,NaN,NaN
4760000,19.9675339404473,101341.214395895,0.119165613831539,0.124815302767143,0.0254409490994102,0.083451059036238,9.96390089611285,-0.0221334640577691,0.00966401243303288,0.0104284867448818,0.289798084968289,-0.0837944019795327,10.026329075802,0.0293749362265198,-0.0214408450265177,9.79993252034351,0.163725967992791,-2.58638729488872,-0.0667609795764252,0.0318512712344277,0.0116684901473143,0.0116684901473143,0.018130398329001,NaN,NaN,NaN,NaN,NaN,NaN
4780000,20.0564953460233,101320.791658534,-0.172800885756055,-0.167151196820451,0.0657549931155231,-0.123116025223181,10.0002921364092,0.00834296454641436,0.00199513173671856,-0.0423601754282235,0.191259533660098,-0.0392557236609021,9.92432070091746,0.0300902125672347,-0.0234647375940255,9.79992571324892,0.200713011688038,-2.58613446587802,0.0920438806464539,0.0323045666183853,0.0109994417145484,0.0109994417145484,0.0187629311262185,NaN,NaN,NaN,NaN,NaN,NaN
4800000,19.9933017674171,101303.115094807,-0.206521397081179,-0.200871708145575,0.0429762558083586,-0.0965330085402482,9.7814649392943,0.00413516872340691,-0.028671051138057,0.026375154989532,0.0211889102999744,-0.162190265558118,10.1134126911211,0.0303490631908543,-0.0249270309339308,9.79992130465813,-0.018234977576526,-2.58274951036499,0.246451670656623,0.0327314971511127,0.0103509156259366,0.0103509156259366,0.0195290719492663,2.25440753457862,0.737977998393188,-4.41277411864492,1.90424613913844,-1.51797480713744,0.275878986846454
4820000,19.9853918507937,101333.5375026,-0.0169791819649552,-0.0113294930293513,0.280139557665024,-0.108491367108615,9.82874385056581,0.0088963303156627,0.0183054119870539,-0.0170187431837861,0.255259994662347,-0.193718429857317,9.76287664014295,0.0353427179564494,-0.0265966958473916,9.79990017847414,0.0299484714902576,-2.57626749448221,0.401749917621099,0.0331328968068698,0.00972349124012138,0.00972349124012138,0.0204138875899937,NaN,NaN,NaN,NaN,NaN,NaN
4840000,20.0015979162856,101323.125200145,-0.117658529520662,-0.112008840585058,-0.0214700533455498,-0.22822509950255,9.79225548378762,0.0133355840100812,0.00178786494654068,-0.0080513908688925,0.013285532275306,-0.202421930662016,9.9158006099831,0.0342069691784957,-0.0306297175850014,9.79989243326988,-0.00721362600955722,-2.56668835613741,0.556163916859495,0.0335097044270822,0.00912189445215827,0.00912189445215827,0.0214148239219216,NaN,NaN,NaN,NaN,NaN,NaN
4860000,19.9650221849774,101337.445350255,0.0819259070151475,0.0875755959507514,-0.0282454907779654,-0.209395362292131,9.8823961710334,-0.019044540998747,-0.00830983831374824,-0.0243751125832921,0.108091848690076,0.0503393661222172,9.66969487838634,0.0329523463189136,-0.0341992459142871,9.79988492557188,0.0829158850340601,-2.5540049838275,0.712173314131277,0.0338630466062938,0.00855078493125476,0.00855078493125476,0.0225289084876586,NaN,NaN,NaN,NaN,NaN,NaN
4880000,19.9420510201568,101348.350789487,-0.178162412417038,-0.172512723481434,-0.108451971157325,-0.0896592235783914,9.66884064638785,-0.0176436554740682,-0.000640370050448964,0.00410553502604865,0.115571431345432,-0.24338999001481,9.79476475144597,0.0301323342787202,-0.0353179093120257,9.79989003447043,-0.131278187683865,-2.53824703408374,0.863621660244077,0.0341942330648022,0.00801465467515198,0.00801465467515198,0.023752244685034,NaN,NaN,NaN,NaN,NaN,NaN
4900000,20.0138599450303,101328.884617109,0.317104597287487,0.322754286223091,0.110752274509356,-0.0192501373713744,9.91159654310386,0.0221209416128284,0.0209920601258902,0.010655346519419,0.0379461516263376,-0.0200899875742473,10.1763426924516,0.0317374851430406,-0.0349885634789559,9.7998861489541,0.111908796949496,-2.51941482292943,1.01959945518759,0.0345047512274202,0.00751789824907895,0.00751789824907895,0.025081203351937,3.17922656509231,-0.703270415281202,-2.15717675518088,1.83099168036218,-1.24488589400422,0.141152700825083
4920000,19.9815416645335,101321.039714856,0.151151087143582,0.156800776079186,0.0669741458812732,-0.0343151152233319,9.90182743813814,-0.00207644340248098,-0.00866274892316768,0.0113263963801071,-0.0204871230005752,-0.160037997932793,9.87928632321836,0.0324354629736734,-0.0349678117135157,9.79988393772527,0.10205427827084,-2.49746914134898,1.17496870285681,0.0347962596119717,0.00706466649489449,0.00706466649489449,0.0265103066314308,NaN,NaN,NaN,NaN,NaN,NaN
4940000,20.0128944237665,101323.200621014,0.21592567671342,0.221575365649024,-0.000425762477569071,-0.00799528113910598,9.8530667913306,0.00487015740699769,-0.0071190459462789,0.0147259537817633,0.0370464587814576,-0.115979235691363,9.67588648367628,0.0317748029544025,-0.0344246390899515,9.79988802518278,0.0529809148811804,-2.47243066559866,1.32887887217605,0.0350705794386909,0.00665894448834396,0.00665894448834396,0.0280342360867895,NaN,NaN,NaN,NaN,NaN,NaN
4960000,19.9899032568238,101331.364895779,-0.220715040623949,-0.215065351688345,-0.1754002709088,-0.212282250127061,9.53649754186943,0.0130449346991306,-0.0157745416007439,-0.0395696901526209,0.310771535775357,-0.107631318744276,9.66938071122192,0.0276461603486832,-0.0380022162102805,9.79988732187167,-0.263283733920535,-2.44438263742379,1.47592394531019,0.0353296866885032,0.00630448352704684,0.00630448352704684,0.0296473410418922,NaN,NaN,NaN,NaN,NaN,NaN
4980000,19.9849080538963,101320.56204932,0.176390742986509,0.182040431922112,-5.78116669677081e-05,0.0558538650186356,9.83290637659919,0.013369144848857,-0.0102306242622556,0.00501401534241268,0.232370538970746,-0.165276724894229,9.96069843818701,0.0270902793291041,-0.0361226923257351,9.79989598250231,0.0325959732898298,-2.41334030898719,1.62830889834965,0.0355757012210157,0.006004729688116,0.006004729688116,0.0313446589501389,NaN,NaN,NaN,NaN,NaN,NaN
5000000,19.9818974574171,101318.016350215,0.292851058465128,0.298500747400732,-0.00445537704900791,0.118442215235833,9.81573170170264,0.00728954273111287,0.027512676690401,-0.000859641569923195,0.0676685198229865,-0.375987312912531,9.8876338259384,0.0264585452286416,-0.0330303692867846,9.79990861896626,0.0152289420482159,-2.37926038097543,1.77968390282671,0.0358108781646079,0.00576298657744579,0.00576298657744579,0.0331184761403013,2.45184024346295,0.551144975485974,-0.852308638190628,1.36675533769022,-0.869101818748361,-0.189438591323016
5020000,19.9775752118558,101326.236858313,-0.00447034206317087,0.00117934687243309,0.120645716764639,0.0182955104421705,9.69181917668589,0.0322343181624022,0.000727091505794376,0.0011097940381246,0.104488385986137,-0.132159126577068,9.78595446664779,0.0283485366405619,-0.0320109068551147,9.79990671702097,-0.107983844551192,-2.34218482168335,1.92787202638156,0.036037597868117,0.00558221561361185,0.00558221561361185,0.0349618792612786,NaN,NaN,NaN,NaN,NaN,NaN
5040000,20.0257925641516,101341.034608116,0.105980206421114,0.111629895356718,0.0563630050039129,0.0389617473329472,9.90584126107811,0.00961257079960678,-0.00120363784339267,-0.02282772945653,0.218852932138433,0.0554296021554426,10.1743743555355,0.0289025860740288,-0.0305848506444631,9.79990965302381,0.105794570728714,-2.30211044017172,2.07956612478105,0.0362583524265882,0.00546504391841824,0.00546504391841824,0.0368682009545494,NaN,NaN,NaN,NaN,NaN,NaN
5060000,19.9788298016089,101333.407371797,0.238050772323453,0.243700461259057,-0.0651176494925825,0.0417105762272769,9.98164608042811,-0.0021506682907018,-0.00540019468714969,0.00517829807881002,-0.192759841407425,0.025626524242015,9.72171857609434,0.0270121898088475,-0.0291281678728812,9.79991948392629,0.181260610435658,-2.25899559870219,2.23191802217167,0.0364757358669169,0.00541393115369152,0.00541393115369152,0.0388288120898495,NaN,NaN,NaN,NaN,NaN,NaN
